"","Subject","Age","Sex","Trial","id1","id2","RT","Choice","nb1","nb2","rate1","rate2"
"1",1,28,"female",1,33,65,8114,"1",22,126,3.9,3.2
"2",1,28,"female",2,56,30,8373,"0",94,20,3.9,4
"3",1,28,"female",3,81,82,6560,"1",22,89,4.6,4.3
"4",1,28,"female",4,62,66,2429,"1",111,134,4.5,3.3
"5",1,28,"female",5,81,77,10278,"1",22,354,4.6,3.5
"6",1,28,"female",6,1,30,5185,"0",1,20,5,4
"7",1,28,"female",7,38,65,12039,"1",59,126,4,3.2
"8",1,28,"female",8,38,23,8006,"0",59,12,4,4.7
"9",1,28,"female",9,38,73,5366,"1",59,272,4,3.8
"10",1,28,"female",10,28,21,4240,"0",18,11,3.2,4.6
"11",1,28,"female",11,30,73,10247,"0",20,272,4,3.8
"12",1,28,"female",12,63,30,3373,"0",113,20,3.3,4
"13",1,28,"female",13,44,42,6421,"0",45,39,4,4.6
"14",1,28,"female",14,70,10,2356,"1",172,5,4.1,3
"15",1,28,"female",15,22,27,3216,"1",12,18,3.8,2.8
"16",1,28,"female",16,59,49,3527,"0",96,57,3.3,4.5
"17",1,28,"female",17,49,44,2623,"1",57,45,4.5,4
"18",1,28,"female",18,56,21,8879,"0",94,11,3.9,4.6
"19",1,28,"female",19,3,1,2337,"0",2,1,2.5,5
"20",1,28,"female",20,66,61,3399,"0",134,106,3.3,4.3
"21",1,28,"female",21,43,5,1796,"1",44,2,4.6,5
"22",1,28,"female",22,11,15,4334,"1",6,8,3.7,3.5
"23",1,28,"female",23,74,20,2295,"1",284,11,3.6,3.9
"24",1,28,"female",24,20,50,4021,"1",11,74,3.9,3.3
"25",1,28,"female",25,37,17,4465,"0",27,9,3.7,4.9
"26",1,28,"female",26,16,50,2373,"1",9,74,3.9,3.3
"27",1,28,"female",27,48,34,1763,"0",53,23,4.2,4.8
"28",1,28,"female",28,44,34,3828,"0",45,23,4,4.8
"29",1,28,"female",29,48,59,2023,"1",53,96,4.2,3.3
"30",1,28,"female",30,63,45,1791,"0",113,46,3.3,4.7
"31",1,28,"female",31,57,83,2887,"0",96,24,2.7,4
"32",1,28,"female",32,46,7,2414,"1",47,3,3.9,4.7
"33",1,28,"female",33,61,53,3188,"0",106,84,4.3,4.5
"34",1,28,"female",34,22,5,6310,"0",12,2,3.8,5
"35",1,28,"female",35,28,1,1520,"1",18,1,3.2,5
"36",1,28,"female",36,56,6,3666,"1",94,3,3.9,4
"37",1,28,"female",37,82,42,4709,"1",89,39,4.3,4.6
"38",1,28,"female",38,39,36,2328,"0",31,24,3.8,4.6
"39",1,28,"female",39,7,4,5726,"1",3,2,4.7,4
"40",1,28,"female",40,27,5,5058,"0",18,2,2.8,5
"41",1,28,"female",41,47,42,2879,"0",49,39,3.9,4.6
"42",1,28,"female",42,18,32,5908,"1",10,22,3.3,3.1
"43",1,28,"female",43,6,51,2765,"1",3,76,4,3.2
"44",1,28,"female",44,28,32,3049,"1",18,22,3.2,3.1
"45",1,28,"female",45,30,46,2720,"0",20,47,4,3.9
"46",1,28,"female",46,49,17,3044,"1",57,9,4.5,4.9
"47",1,28,"female",47,16,32,9560,"1",9,22,3.9,3.1
"48",1,28,"female",48,55,4,2274,"1",45,2,3.5,4
"49",1,28,"female",49,30,12,4877,"1",20,6,4,4.2
"50",1,28,"female",50,8,10,2037,"1",4,5,4.2,3
"51",1,28,"female",51,81,7,2816,"1",22,3,4.6,4.7
"52",1,28,"female",52,72,40,2294,"0",38,33,3.3,4.5
"53",1,28,"female",53,71,61,6020,"0",200,106,4.1,4.3
"54",1,28,"female",54,54,72,3475,"0",85,38,2.5,3.3
"55",1,28,"female",55,40,64,1793,"1",33,120,4.5,3.4
"56",1,28,"female",56,78,17,3111,"1",396,9,4.7,4.9
"57",1,28,"female",57,24,16,2889,"0",13,9,3.5,3.9
"58",1,28,"female",58,11,77,8144,"0",6,354,3.7,3.5
"59",1,28,"female",59,10,70,1677,"0",5,172,3,4.1
"60",1,28,"female",60,42,38,1807,"1",39,59,4.6,4
"61",1,28,"female",61,11,6,3100,"0",6,3,3.7,4
"62",1,28,"female",62,15,57,3582,"1",8,96,3.5,2.7
"63",1,28,"female",63,29,57,3409,"1",19,96,4.3,2.7
"64",1,28,"female",64,4,64,4497,"1",2,120,4,3.4
"65",1,28,"female",65,64,49,5884,"0",120,57,3.4,4.5
"66",1,28,"female",66,22,77,1600,"1",12,354,3.8,3.5
"67",1,28,"female",67,51,35,2978,"0",76,24,3.2,4.3
"68",1,28,"female",68,63,30,2953,"0",113,20,3.3,4
"69",1,28,"female",69,25,17,2174,"0",13,9,4.1,4.9
"70",1,28,"female",70,24,35,2611,"0",13,24,3.5,4.3
"71",1,28,"female",71,41,21,2482,"0",35,11,3.6,4.6
"72",1,28,"female",72,31,10,1813,"0",21,5,1.9,3
"73",1,28,"female",73,48,70,3522,"1",53,172,4.2,4.1
"74",1,28,"female",74,26,17,2871,"0",17,9,3.1,4.9
"75",1,28,"female",75,15,51,2809,"0",8,76,3.5,3.2
"76",1,28,"female",76,62,76,1854,"1",111,348,4.5,4.2
"77",1,28,"female",77,44,58,2068,"0",45,99,4,4.6
"78",1,28,"female",78,22,45,6532,"0",12,46,3.8,4.7
"79",1,28,"female",79,65,45,2073,"0",126,46,3.2,4.7
"80",1,28,"female",80,77,52,1689,"0",354,77,3.5,4.3
"81",1,28,"female",81,4,47,2094,"0",2,49,4,3.9
"82",1,28,"female",82,70,30,1475,"1",172,20,4.1,4
"83",1,28,"female",83,76,40,3325,"1",348,33,4.2,4.5
"84",1,28,"female",84,65,50,3722,"0",126,74,3.2,3.3
"85",1,28,"female",85,34,43,3703,"1",23,44,4.8,4.6
"86",1,28,"female",86,47,3,1522,"1",49,2,3.9,2.5
"87",1,28,"female",87,28,17,1651,"0",18,9,3.2,4.9
"88",1,28,"female",88,23,15,4624,"1",12,8,4.7,3.5
"89",1,28,"female",89,42,67,1397,"0",39,148,4.6,4.8
"90",1,28,"female",90,71,58,1758,"0",200,99,4.1,4.6
"91",1,28,"female",91,43,56,1696,"1",44,94,4.6,3.9
"92",1,28,"female",92,37,34,2485,"1",27,23,3.7,4.8
"93",1,28,"female",93,22,41,2856,"0",12,35,3.8,3.6
"94",1,28,"female",94,72,65,3511,"0",38,126,3.3,3.2
"95",1,28,"female",95,72,33,2621,"0",38,22,3.3,3.9
"96",1,28,"female",96,37,1,2846,"1",27,1,3.7,5
"97",1,28,"female",97,3,31,3066,"1",2,21,2.5,1.9
"98",1,28,"female",98,80,78,4531,"0",988,396,4.3,4.7
"99",1,28,"female",99,58,71,1540,"1",99,200,4.6,4.1
"100",1,28,"female",100,28,15,2441,"0",18,8,3.2,3.5
"101",1,28,"female",101,56,66,1572,"1",94,134,3.9,3.3
"102",1,28,"female",102,19,65,1553,"1",10,126,4.3,3.2
"103",1,28,"female",103,2,31,1384,"1",2,21,3,1.9
"104",1,28,"female",104,54,58,5967,"0",85,99,2.5,4.6
"105",1,28,"female",105,41,1,1651,"1",35,1,3.6,5
"106",1,28,"female",106,1,61,1872,"0",1,106,5,4.3
"107",1,28,"female",107,20,27,2072,"1",11,18,3.9,2.8
"108",1,28,"female",108,62,76,3016,"1",111,348,4.5,4.2
"109",1,28,"female",109,23,36,1958,"0",12,24,4.7,4.6
"110",1,28,"female",110,77,61,3680,"0",354,106,3.5,4.3
"111",1,28,"female",111,73,17,7126,"1",272,9,3.8,4.9
"112",1,28,"female",112,32,4,1540,"1",22,2,3.1,4
"113",1,28,"female",113,22,19,2825,"0",12,10,3.8,4.3
"114",1,28,"female",114,20,76,1714,"0",11,348,3.9,4.2
"115",1,28,"female",115,5,43,1577,"0",2,44,5,4.6
"116",1,28,"female",116,59,15,3990,"1",96,8,3.3,3.5
"117",1,28,"female",117,65,77,1849,"0",126,354,3.2,3.5
"118",1,28,"female",118,12,62,1663,"0",6,111,4.2,4.5
"119",1,28,"female",119,51,40,1934,"0",76,33,3.2,4.5
"120",1,28,"female",120,2,27,6338,"0",2,18,3,2.8
"121",1,28,"female",121,24,1,1538,"1",13,1,3.5,5
"122",1,28,"female",122,63,61,1494,"0",113,106,3.3,4.3
"123",1,28,"female",123,25,38,3587,"0",13,59,4.1,4
"124",1,28,"female",124,26,21,2453,"0",17,11,3.1,4.6
"125",1,28,"female",125,24,4,1731,"1",13,2,3.5,4
"126",1,28,"female",126,15,50,1920,"0",8,74,3.5,3.3
"127",1,28,"female",127,27,54,2899,"1",18,85,2.8,2.5
"128",1,28,"female",128,43,1,1562,"1",44,1,4.6,5
"129",1,28,"female",129,13,6,3395,"0",7,3,3.3,4
"130",1,28,"female",130,47,13,1985,"1",49,7,3.9,3.3
"131",1,28,"female",131,1,33,1312,"0",1,22,5,3.9
"132",1,28,"female",132,52,42,9622,"0",77,39,4.3,4.6
"133",1,28,"female",133,32,13,2558,"1",22,7,3.1,3.3
"134",1,28,"female",134,65,64,1826,"0",126,120,3.2,3.4
"135",1,28,"female",135,54,51,2770,"0",85,76,2.5,3.2
"136",1,28,"female",136,15,12,2480,"0",8,6,3.5,4.2
"137",1,28,"female",137,28,21,3268,"0",18,11,3.2,4.6
"138",1,28,"female",138,20,51,3510,"1",11,76,3.9,3.2
"139",1,28,"female",139,30,29,2440,"1",20,19,4,4.3
"140",1,28,"female",140,35,73,2420,"0",24,272,4.3,3.8
"141",1,28,"female",141,12,44,3049,"0",6,45,4.2,4
"142",1,28,"female",142,69,1,1904,"1",167,1,3.9,5
"143",1,28,"female",143,34,2,3552,"1",23,2,4.8,3
"144",1,28,"female",144,24,16,3197,"0",13,9,3.5,3.9
"145",1,28,"female",145,20,19,2642,"0",11,10,3.9,4.3
"146",1,28,"female",146,10,27,4214,"0",5,18,3,2.8
"147",1,28,"female",147,3,1,3303,"0",2,1,2.5,5
"148",1,28,"female",148,17,68,2209,"1",9,166,4.9,3.1
"149",1,28,"female",149,67,80,1887,"0",148,988,4.8,4.3
"150",1,28,"female",150,3,31,3081,"1",2,21,2.5,1.9
"151",1,28,"female",151,52,64,1958,"1",77,120,4.3,3.4
"152",1,28,"female",152,2,31,2079,"1",2,21,3,1.9
"153",1,28,"female",153,30,73,1906,"0",20,272,4,3.8
"154",1,28,"female",154,37,6,3570,"1",27,3,3.7,4
"155",1,28,"female",155,2,1,4066,"0",2,1,3,5
"156",1,28,"female",156,59,25,3366,"0",96,13,3.3,4.1
"157",1,28,"female",157,52,73,3773,"1",77,272,4.3,3.8
"158",1,28,"female",158,22,15,2630,"1",12,8,3.8,3.5
"159",1,28,"female",159,80,1,1063,"1",988,1,4.3,5
"160",1,28,"female",160,55,65,1949,"1",45,126,3.5,3.2
"161",1,28,"female",161,81,51,3189,"1",22,76,4.6,3.2
"162",1,28,"female",162,38,48,3591,"0",59,53,4,4.2
"163",1,28,"female",163,60,63,1785,"1",104,113,4.7,3.3
"164",1,28,"female",164,37,8,3264,"1",27,4,3.7,4.2
"165",1,28,"female",165,22,32,1458,"1",12,22,3.8,3.1
"166",1,28,"female",166,64,39,2007,"0",120,31,3.4,3.8
"167",1,28,"female",167,72,42,1849,"0",38,39,3.3,4.6
"168",1,28,"female",168,14,77,2462,"0",8,354,3.9,3.5
"169",1,28,"female",169,7,40,2831,"0",3,33,4.7,4.5
"170",1,28,"female",170,52,70,1737,"0",77,172,4.3,4.1
"171",1,28,"female",171,48,42,1270,"1",53,39,4.2,4.6
"172",1,28,"female",172,4,13,2724,"0",2,7,4,3.3
"173",1,28,"female",173,76,34,2120,"1",348,23,4.2,4.8
"174",1,28,"female",174,60,5,1507,"1",104,2,4.7,5
"175",1,28,"female",175,77,38,4545,"0",354,59,3.5,4
"176",1,28,"female",176,45,50,1445,"1",46,74,4.7,3.3
"177",1,28,"female",177,78,5,1367,"1",396,2,4.7,5
"178",1,28,"female",178,30,47,4809,"0",20,49,4,3.9
"179",1,28,"female",179,25,30,5347,"0",13,20,4.1,4
"180",1,28,"female",180,29,71,1561,"0",19,200,4.3,4.1
"181",1,28,"female",181,28,8,1987,"0",18,4,3.2,4.2
"182",1,28,"female",182,65,45,1922,"0",126,46,3.2,4.7
"183",1,28,"female",183,77,54,1333,"1",354,85,3.5,2.5
"184",1,28,"female",184,70,40,2321,"1",172,33,4.1,4.5
"185",1,28,"female",185,82,1,1316,"1",89,1,4.3,5
"186",1,28,"female",186,37,17,2494,"0",27,9,3.7,4.9
"187",1,28,"female",187,4,31,2547,"1",2,21,4,1.9
"188",1,28,"female",188,28,24,7732,"0",18,13,3.2,3.5
"189",1,28,"female",189,76,40,1566,"1",348,33,4.2,4.5
"190",1,28,"female",190,13,5,2376,"1",7,2,3.3,5
"191",1,28,"female",191,30,73,1942,"0",20,272,4,3.8
"192",1,28,"female",192,72,8,3150,"0",38,4,3.3,4.2
"193",1,28,"female",193,44,23,5048,"0",45,12,4,4.7
"194",1,28,"female",194,15,12,2386,"0",8,6,3.5,4.2
"195",1,28,"female",195,34,36,4195,"1",23,24,4.8,4.6
"196",1,28,"female",196,10,9,3904,"0",5,4,3,5
"197",1,28,"female",197,21,44,4564,"1",11,45,4.6,4
"198",1,28,"female",198,13,54,2829,"1",7,85,3.3,2.5
"199",1,28,"female",199,43,54,1687,"1",44,85,4.6,2.5
"200",1,28,"female",200,51,55,4281,"0",76,45,3.2,3.5
"201",10,27,"female",1,27,12,5350,"0",18,6,2.8,4.2
"202",10,27,"female",2,38,12,5589,"1",59,6,4,4.2
"203",10,27,"female",3,53,77,3336,"1",84,354,4.5,3.5
"204",10,27,"female",4,13,32,19389,"1",7,22,3.3,3.1
"205",10,27,"female",5,47,29,2914,"0",49,19,3.9,4.3
"206",10,27,"female",6,65,38,1897,"0",126,59,3.2,4
"207",10,27,"female",7,72,17,2283,"0",38,9,3.3,4.9
"208",10,27,"female",8,22,54,3773,"1",12,85,3.8,2.5
"209",10,27,"female",9,58,76,1791,"1",99,348,4.6,4.2
"210",10,27,"female",10,80,62,2262,"0",988,111,4.3,4.5
"211",10,27,"female",11,26,7,4761,"0",17,3,3.1,4.7
"212",10,27,"female",12,4,33,2865,"0",2,22,4,3.9
"213",10,27,"female",13,27,70,2315,"0",18,172,2.8,4.1
"214",10,27,"female",14,34,65,1883,"1",23,126,4.8,3.2
"215",10,27,"female",15,54,38,1838,"0",85,59,2.5,4
"216",10,27,"female",16,59,43,1747,"0",96,44,3.3,4.6
"217",10,27,"female",17,73,30,2204,"0",272,20,3.8,4
"218",10,27,"female",18,71,81,1441,"0",200,22,4.1,4.6
"219",10,27,"female",19,21,63,1992,"1",11,113,4.6,3.3
"220",10,27,"female",20,42,61,1190,"1",39,106,4.6,4.3
"221",10,27,"female",21,44,21,1447,"0",45,11,4,4.6
"222",10,27,"female",22,13,1,5708,"0",7,1,3.3,5
"223",10,27,"female",23,64,52,1819,"0",120,77,3.4,4.3
"224",10,27,"female",24,55,83,1248,"0",45,24,3.5,4
"225",10,27,"female",25,45,64,1182,"1",46,120,4.7,3.4
"226",10,27,"female",26,60,66,1312,"1",104,134,4.7,3.3
"227",10,27,"female",27,56,31,1852,"1",94,21,3.9,1.9
"228",10,27,"female",28,4,77,6433,"1",2,354,4,3.5
"229",10,27,"female",29,24,23,1137,"0",13,12,3.5,4.7
"230",10,27,"female",30,42,17,1636,"0",39,9,4.6,4.9
"231",10,27,"female",31,64,56,1410,"0",120,94,3.4,3.9
"232",10,27,"female",32,57,56,697,"0",96,94,2.7,3.9
"233",10,27,"female",33,64,6,3344,"0",120,3,3.4,4
"234",10,27,"female",34,52,81,3572,"0",77,22,4.3,4.6
"235",10,27,"female",35,42,49,5471,"1",39,57,4.6,4.5
"236",10,27,"female",36,42,69,1240,"1",39,167,4.6,3.9
"237",10,27,"female",37,78,34,1110,"0",396,23,4.7,4.8
"238",10,27,"female",38,45,79,1627,"1",46,416,4.7,3.6
"239",10,27,"female",39,14,22,2089,"1",8,12,3.9,3.8
"240",10,27,"female",40,47,45,1539,"0",49,46,3.9,4.7
"241",10,27,"female",41,29,38,1813,"1",19,59,4.3,4
"242",10,27,"female",42,36,73,1323,"1",24,272,4.6,3.8
"243",10,27,"female",43,83,50,1238,"1",24,74,4,3.3
"244",10,27,"female",44,9,6,1381,"1",4,3,5,4
"245",10,27,"female",45,21,1,2366,"1",11,1,4.6,5
"246",10,27,"female",46,53,54,1581,"1",84,85,4.5,2.5
"247",10,27,"female",47,64,66,2029,"1",120,134,3.4,3.3
"248",10,27,"female",48,78,80,1514,"1",396,988,4.7,4.3
"249",10,27,"female",49,69,61,1741,"0",167,106,3.9,4.3
"250",10,27,"female",50,12,74,1815,"1",6,284,4.2,3.6
"251",10,27,"female",51,71,42,2172,"0",200,39,4.1,4.6
"252",10,27,"female",52,67,77,1027,"1",148,354,4.8,3.5
"253",10,27,"female",53,8,77,5754,"1",4,354,4.2,3.5
"254",10,27,"female",54,37,29,1335,"0",27,19,3.7,4.3
"255",10,27,"female",55,65,4,2449,"0",126,2,3.2,4
"256",10,27,"female",56,38,3,989,"1",59,2,4,2.5
"257",10,27,"female",57,73,62,1270,"0",272,111,3.8,4.5
"258",10,27,"female",58,32,18,3459,"1",22,10,3.1,3.3
"259",10,27,"female",59,70,53,1395,"0",172,84,4.1,4.5
"260",10,27,"female",60,11,79,3178,"0",6,416,3.7,3.6
"261",10,27,"female",61,77,41,3830,"1",354,35,3.5,3.6
"262",10,27,"female",62,72,4,3877,"0",38,2,3.3,4
"263",10,27,"female",63,62,66,1906,"1",111,134,4.5,3.3
"264",10,27,"female",64,3,1,2708,"0",2,1,2.5,5
"265",10,27,"female",65,63,61,1555,"0",113,106,3.3,4.3
"266",10,27,"female",66,40,36,2612,"0",33,24,4.5,4.6
"267",10,27,"female",67,1,44,3431,"0",1,45,5,4
"268",10,27,"female",68,26,27,2040,"1",17,18,3.1,2.8
"269",10,27,"female",69,13,28,1636,"1",7,18,3.3,3.2
"270",10,27,"female",70,1,54,2290,"1",1,85,5,2.5
"271",10,27,"female",71,25,36,1939,"0",13,24,4.1,4.6
"272",10,27,"female",72,2,1,1956,"0",2,1,3,5
"273",10,27,"female",73,26,7,2771,"0",17,3,3.1,4.7
"274",10,27,"female",74,63,12,1249,"0",113,6,3.3,4.2
"275",10,27,"female",75,33,70,2095,"0",22,172,3.9,4.1
"276",10,27,"female",76,15,9,1402,"0",8,4,3.5,5
"277",10,27,"female",77,17,45,1634,"1",9,46,4.9,4.7
"278",10,27,"female",78,43,53,3200,"1",44,84,4.6,4.5
"279",10,27,"female",79,78,22,1146,"1",396,12,4.7,3.8
"280",10,27,"female",80,35,5,4093,"1",24,2,4.3,5
"281",10,27,"female",81,51,81,1137,"0",76,22,3.2,4.6
"282",10,27,"female",82,49,23,1556,"0",57,12,4.5,4.7
"283",10,27,"female",83,67,17,3236,"1",148,9,4.8,4.9
"284",10,27,"female",84,7,37,1965,"1",3,27,4.7,3.7
"285",10,27,"female",85,23,21,2957,"1",12,11,4.7,4.6
"286",10,27,"female",86,73,53,1074,"0",272,84,3.8,4.5
"287",10,27,"female",87,52,81,1240,"0",77,22,4.3,4.6
"288",10,27,"female",88,39,14,1623,"0",31,8,3.8,3.9
"289",10,27,"female",89,55,36,917,"0",45,24,3.5,4.6
"290",10,27,"female",90,15,13,1649,"1",8,7,3.5,3.3
"291",10,27,"female",91,34,45,1391,"1",23,46,4.8,4.7
"292",10,27,"female",92,2,29,1190,"0",2,19,3,4.3
"293",10,27,"female",93,46,45,1703,"0",47,46,3.9,4.7
"294",10,27,"female",94,4,66,2386,"1",2,134,4,3.3
"295",10,27,"female",95,54,27,2032,"0",85,18,2.5,2.8
"296",10,27,"female",96,61,47,1981,"1",106,49,4.3,3.9
"297",10,27,"female",97,43,69,3355,"1",44,167,4.6,3.9
"298",10,27,"female",98,76,82,1376,"0",348,89,4.2,4.3
"299",10,27,"female",99,4,56,2168,"0",2,94,4,3.9
"300",10,27,"female",100,52,40,2191,"0",77,33,4.3,4.5
"301",10,27,"female",101,72,11,1733,"0",38,6,3.3,3.7
"302",10,27,"female",102,78,17,1935,"0",396,9,4.7,4.9
"303",10,27,"female",103,28,20,2016,"0",18,11,3.2,3.9
"304",10,27,"female",104,45,17,1454,"0",46,9,4.7,4.9
"305",10,27,"female",105,21,76,1507,"1",11,348,4.6,4.2
"306",10,27,"female",106,27,29,1286,"0",18,19,2.8,4.3
"307",10,27,"female",107,30,9,1891,"0",20,4,4,5
"308",10,27,"female",108,78,17,3174,"1",396,9,4.7,4.9
"309",10,27,"female",109,50,12,1217,"0",74,6,3.3,4.2
"310",10,27,"female",110,1,67,1601,"0",1,148,5,4.8
"311",10,27,"female",111,18,17,1617,"0",10,9,3.3,4.9
"312",10,27,"female",112,43,65,1104,"1",44,126,4.6,3.2
"313",10,27,"female",113,11,54,1205,"1",6,85,3.7,2.5
"314",10,27,"female",114,24,28,1365,"1",13,18,3.5,3.2
"315",10,27,"female",115,50,81,1262,"0",74,22,3.3,4.6
"316",10,27,"female",116,44,36,1339,"0",45,24,4,4.6
"317",10,27,"female",117,64,82,982,"0",120,89,3.4,4.3
"318",10,27,"female",118,37,77,1776,"1",27,354,3.7,3.5
"319",10,27,"female",119,11,35,1000,"0",6,24,3.7,4.3
"320",10,27,"female",120,40,74,897,"1",33,284,4.5,3.6
"321",10,27,"female",121,16,21,1070,"0",9,11,3.9,4.6
"322",10,27,"female",122,69,9,2180,"0",167,4,3.9,5
"323",10,27,"female",123,74,39,1307,"0",284,31,3.6,3.8
"324",10,27,"female",124,38,27,2583,"1",59,18,4,2.8
"325",10,27,"female",125,58,70,1228,"1",99,172,4.6,4.1
"326",10,27,"female",126,68,12,1307,"0",166,6,3.1,4.2
"327",10,27,"female",127,20,5,3991,"0",11,2,3.9,5
"328",10,27,"female",128,11,18,1120,"1",6,10,3.7,3.3
"329",10,27,"female",129,72,37,1108,"0",38,27,3.3,3.7
"330",10,27,"female",130,58,65,1321,"1",99,126,4.6,3.2
"331",10,27,"female",131,10,46,1572,"0",5,47,3,3.9
"332",10,27,"female",132,21,5,3156,"1",11,2,4.6,5
"333",10,27,"female",133,29,59,1840,"1",19,96,4.3,3.3
"334",10,27,"female",134,6,16,2709,"0",3,9,4,3.9
"335",10,27,"female",135,18,68,4917,"0",10,166,3.3,3.1
"336",10,27,"female",136,12,71,2326,"0",6,200,4.2,4.1
"337",10,27,"female",137,37,30,1653,"0",27,20,3.7,4
"338",10,27,"female",138,8,38,1330,"0",4,59,4.2,4
"339",10,27,"female",139,36,59,1277,"1",24,96,4.6,3.3
"340",10,27,"female",140,28,68,1770,"0",18,166,3.2,3.1
"341",10,27,"female",141,44,74,3042,"1",45,284,4,3.6
"342",10,27,"female",142,17,41,1748,"1",9,35,4.9,3.6
"343",10,27,"female",143,77,8,1181,"0",354,4,3.5,4.2
"344",10,27,"female",144,41,7,1918,"0",35,3,3.6,4.7
"345",10,27,"female",145,78,17,1392,"0",396,9,4.7,4.9
"346",10,27,"female",146,20,65,1721,"1",11,126,3.9,3.2
"347",10,27,"female",147,49,28,1251,"1",57,18,4.5,3.2
"348",10,27,"female",148,58,69,1121,"1",99,167,4.6,3.9
"349",10,27,"female",149,76,82,3332,"1",348,89,4.2,4.3
"350",10,27,"female",150,2,31,1769,"1",2,21,3,1.9
"351",10,27,"female",151,79,78,2160,"0",416,396,3.6,4.7
"352",10,27,"female",152,4,46,6087,"0",2,47,4,3.9
"353",10,27,"female",153,7,11,1526,"1",3,6,4.7,3.7
"354",10,27,"female",154,5,49,3832,"1",2,57,5,4.5
"355",10,27,"female",155,61,9,1560,"0",106,4,4.3,5
"356",10,27,"female",156,76,75,1369,"0",348,346,4.2,4.6
"357",10,27,"female",157,67,78,1346,"1",148,396,4.8,4.7
"358",10,27,"female",158,76,80,1436,"0",348,988,4.2,4.3
"359",10,27,"female",159,9,79,1106,"1",4,416,5,3.6
"360",10,27,"female",160,43,63,742,"1",44,113,4.6,3.3
"361",10,27,"female",161,54,26,5338,"0",85,17,2.5,3.1
"362",10,27,"female",162,15,26,1193,"1",8,17,3.5,3.1
"363",10,27,"female",163,23,26,954,"1",12,17,4.7,3.1
"364",10,27,"female",164,12,68,788,"1",6,166,4.2,3.1
"365",10,27,"female",165,45,64,1062,"1",46,120,4.7,3.4
"366",10,27,"female",166,59,16,1244,"0",96,9,3.3,3.9
"367",10,27,"female",167,13,51,1098,"1",7,76,3.3,3.2
"368",10,27,"female",168,60,76,991,"1",104,348,4.7,4.2
"369",10,27,"female",169,42,77,969,"1",39,354,4.6,3.5
"370",10,27,"female",170,25,56,1139,"1",13,94,4.1,3.9
"371",10,27,"female",171,64,68,1254,"1",120,166,3.4,3.1
"372",10,27,"female",172,70,62,884,"0",172,111,4.1,4.5
"373",10,27,"female",173,45,9,1042,"0",46,4,4.7,5
"374",10,27,"female",174,74,77,1593,"1",284,354,3.6,3.5
"375",10,27,"female",175,78,79,1145,"1",396,416,4.7,3.6
"376",10,27,"female",176,18,8,940,"0",10,4,3.3,4.2
"377",10,27,"female",177,15,80,1079,"0",8,988,3.5,4.3
"378",10,27,"female",178,27,11,1149,"0",18,6,2.8,3.7
"379",10,27,"female",179,15,26,2160,"1",8,17,3.5,3.1
"380",10,27,"female",180,68,36,1960,"0",166,24,3.1,4.6
"381",10,27,"female",181,61,66,1176,"1",106,134,4.3,3.3
"382",10,27,"female",182,32,23,953,"0",22,12,3.1,4.7
"383",10,27,"female",183,18,40,1107,"0",10,33,3.3,4.5
"384",10,27,"female",184,36,53,4328,"1",24,84,4.6,4.5
"385",10,27,"female",185,34,1,2066,"1",23,1,4.8,5
"386",10,27,"female",186,35,73,1245,"1",24,272,4.3,3.8
"387",10,27,"female",187,81,1,1227,"1",22,1,4.6,5
"388",10,27,"female",188,79,29,1003,"0",416,19,3.6,4.3
"389",10,27,"female",189,63,60,899,"0",113,104,3.3,4.7
"390",10,27,"female",190,7,36,2449,"0",3,24,4.7,4.6
"391",10,27,"female",191,65,62,924,"0",126,111,3.2,4.5
"392",10,27,"female",192,52,63,761,"1",77,113,4.3,3.3
"393",10,27,"female",193,20,50,1452,"1",11,74,3.9,3.3
"394",10,27,"female",194,46,4,722,"0",47,2,3.9,4
"395",10,27,"female",195,47,74,1190,"1",49,284,3.9,3.6
"396",10,27,"female",196,83,72,1191,"1",24,38,4,3.3
"397",10,27,"female",197,41,55,1976,"1",35,45,3.6,3.5
"398",10,27,"female",198,28,17,1319,"0",18,9,3.2,4.9
"399",10,27,"female",199,76,53,1059,"0",348,84,4.2,4.5
"400",10,27,"female",200,24,54,1065,"1",13,85,3.5,2.5
"401",11,31,"male",1,41,65,4699,"0",35,126,3.6,3.2
"402",11,31,"male",2,6,66,4240,"0",3,134,4,3.3
"403",11,31,"male",3,37,4,2502,"1",27,2,3.7,4
"404",11,31,"male",4,60,63,2898,"1",104,113,4.7,3.3
"405",11,31,"male",5,43,38,2857,"1",44,59,4.6,4
"406",11,31,"male",6,56,59,2055,"1",94,96,3.9,3.3
"407",11,31,"male",7,81,72,2885,"1",22,38,4.6,3.3
"408",11,31,"male",8,38,63,3097,"1",59,113,4,3.3
"409",11,31,"male",9,70,19,2472,"1",172,10,4.1,4.3
"410",11,31,"male",10,17,82,2392,"0",9,89,4.9,4.3
"411",11,31,"male",11,76,20,1417,"1",348,11,4.2,3.9
"412",11,31,"male",12,3,31,4149,"1",2,21,2.5,1.9
"413",11,31,"male",13,41,40,1705,"0",35,33,3.6,4.5
"414",11,31,"male",14,32,28,3632,"0",22,18,3.1,3.2
"415",11,31,"male",15,14,64,2382,"0",8,120,3.9,3.4
"416",11,31,"male",16,78,79,1902,"1",396,416,4.7,3.6
"417",11,31,"male",17,28,7,4158,"0",18,3,3.2,4.7
"418",11,31,"male",18,61,34,2885,"1",106,23,4.3,4.8
"419",11,31,"male",19,55,65,3320,"1",45,126,3.5,3.2
"420",11,31,"male",20,31,25,2021,"0",21,13,1.9,4.1
"421",11,31,"male",21,19,10,2669,"1",10,5,4.3,3
"422",11,31,"male",22,8,25,1686,"0",4,13,4.2,4.1
"423",11,31,"male",23,66,8,3272,"1",134,4,3.3,4.2
"424",11,31,"male",24,36,62,1805,"0",24,111,4.6,4.5
"425",11,31,"male",25,47,71,1543,"0",49,200,3.9,4.1
"426",11,31,"male",26,24,9,2958,"0",13,4,3.5,5
"427",11,31,"male",27,41,59,3059,"0",35,96,3.6,3.3
"428",11,31,"male",28,60,9,2522,"1",104,4,4.7,5
"429",11,31,"male",29,33,30,2101,"0",22,20,3.9,4
"430",11,31,"male",30,69,60,1581,"0",167,104,3.9,4.7
"431",11,31,"male",31,16,49,1529,"0",9,57,3.9,4.5
"432",11,31,"male",32,29,66,2302,"0",19,134,4.3,3.3
"433",11,31,"male",33,16,28,2286,"1",9,18,3.9,3.2
"434",11,31,"male",34,82,15,1625,"1",89,8,4.3,3.5
"435",11,31,"male",35,36,23,1825,"1",24,12,4.6,4.7
"436",11,31,"male",36,44,43,2160,"0",45,44,4,4.6
"437",11,31,"male",37,38,63,2019,"1",59,113,4,3.3
"438",11,31,"male",38,60,71,1673,"1",104,200,4.7,4.1
"439",11,31,"male",39,17,41,2503,"0",9,35,4.9,3.6
"440",11,31,"male",40,46,30,4048,"1",47,20,3.9,4
"441",11,31,"male",41,78,80,2897,"1",396,988,4.7,4.3
"442",11,31,"male",42,30,65,4360,"0",20,126,4,3.2
"443",11,31,"male",43,38,29,2262,"1",59,19,4,4.3
"444",11,31,"male",44,14,6,2879,"1",8,3,3.9,4
"445",11,31,"male",45,18,15,4019,"0",10,8,3.3,3.5
"446",11,31,"male",46,83,69,2831,"0",24,167,4,3.9
"447",11,31,"male",47,82,64,2072,"1",89,120,4.3,3.4
"448",11,31,"male",48,71,61,4407,"1",200,106,4.1,4.3
"449",11,31,"male",49,59,15,1905,"1",96,8,3.3,3.5
"450",11,31,"male",50,75,1,2561,"1",346,1,4.6,5
"451",11,31,"male",51,59,55,4100,"0",96,45,3.3,3.5
"452",11,31,"male",52,52,68,1488,"1",77,166,4.3,3.1
"453",11,31,"male",53,48,23,2156,"1",53,12,4.2,4.7
"454",11,31,"male",54,9,24,2799,"1",4,13,5,3.5
"455",11,31,"male",55,64,38,2899,"0",120,59,3.4,4
"456",11,31,"male",56,83,65,3261,"0",24,126,4,3.2
"457",11,31,"male",57,56,71,1918,"0",94,200,3.9,4.1
"458",11,31,"male",58,3,31,4321,"1",2,21,2.5,1.9
"459",11,31,"male",59,54,47,2295,"0",85,49,2.5,3.9
"460",11,31,"male",60,41,59,2677,"0",35,96,3.6,3.3
"461",11,31,"male",61,69,7,1585,"1",167,3,3.9,4.7
"462",11,31,"male",62,62,36,1648,"1",111,24,4.5,4.6
"463",11,31,"male",63,64,23,4861,"0",120,12,3.4,4.7
"464",11,31,"male",64,44,20,1474,"1",45,11,4,3.9
"465",11,31,"male",65,80,43,2457,"1",988,44,4.3,4.6
"466",11,31,"male",66,15,63,3030,"0",8,113,3.5,3.3
"467",11,31,"male",67,12,34,1624,"0",6,23,4.2,4.8
"468",11,31,"male",68,46,44,1839,"0",47,45,3.9,4
"469",11,31,"male",69,49,64,2642,"1",57,120,4.5,3.4
"470",11,31,"male",70,18,7,3509,"0",10,3,3.3,4.7
"471",11,31,"male",71,18,12,2024,"0",10,6,3.3,4.2
"472",11,31,"male",72,1,7,2704,"0",1,3,5,4.7
"473",11,31,"male",73,46,9,2177,"1",47,4,3.9,5
"474",11,31,"male",74,48,59,2039,"1",53,96,4.2,3.3
"475",11,31,"male",75,35,46,3490,"0",24,47,4.3,3.9
"476",11,31,"male",76,36,41,2592,"1",24,35,4.6,3.6
"477",11,31,"male",77,58,1,1756,"1",99,1,4.6,5
"478",11,31,"male",78,64,40,3870,"0",120,33,3.4,4.5
"479",11,31,"male",79,46,29,3180,"1",47,19,3.9,4.3
"480",11,31,"male",80,69,67,1214,"0",167,148,3.9,4.8
"481",11,31,"male",81,50,39,4354,"0",74,31,3.3,3.8
"482",11,31,"male",82,1,82,1217,"0",1,89,5,4.3
"483",11,31,"male",83,72,9,6997,"0",38,4,3.3,5
"484",11,31,"male",84,34,77,3000,"0",23,354,4.8,3.5
"485",11,31,"male",85,48,1,1860,"1",53,1,4.2,5
"486",11,31,"male",86,35,75,1945,"0",24,346,4.3,4.6
"487",11,31,"male",87,76,58,2561,"0",348,99,4.2,4.6
"488",11,31,"male",88,73,70,1732,"0",272,172,3.8,4.1
"489",11,31,"male",89,58,70,1969,"1",99,172,4.6,4.1
"490",11,31,"male",90,80,78,1855,"0",988,396,4.3,4.7
"491",11,31,"male",91,30,37,3988,"1",20,27,4,3.7
"492",11,31,"male",92,35,20,1463,"1",24,11,4.3,3.9
"493",11,31,"male",93,21,59,3726,"1",11,96,4.6,3.3
"494",11,31,"male",94,49,79,1566,"1",57,416,4.5,3.6
"495",11,31,"male",95,79,23,2295,"1",416,12,3.6,4.7
"496",11,31,"male",96,28,32,1509,"1",18,22,3.2,3.1
"497",11,31,"male",97,78,40,1844,"1",396,33,4.7,4.5
"498",11,31,"male",98,36,74,3159,"0",24,284,4.6,3.6
"499",11,31,"male",99,55,81,2323,"0",45,22,3.5,4.6
"500",11,31,"male",100,53,81,2983,"1",84,22,4.5,4.6
"501",11,31,"male",101,62,4,1872,"1",111,2,4.5,4
"502",11,31,"male",102,71,4,1176,"1",200,2,4.1,4
"503",11,31,"male",103,78,9,1268,"1",396,4,4.7,5
"504",11,31,"male",104,3,1,1555,"0",2,1,2.5,5
"505",11,31,"male",105,64,15,2233,"1",120,8,3.4,3.5
"506",11,31,"male",106,53,4,1401,"1",84,2,4.5,4
"507",11,31,"male",107,4,10,4211,"1",2,5,4,3
"508",11,31,"male",108,81,64,4484,"0",22,120,4.6,3.4
"509",11,31,"male",109,83,8,2030,"1",24,4,4,4.2
"510",11,31,"male",110,62,61,3158,"1",111,106,4.5,4.3
"511",11,31,"male",111,10,4,2242,"0",5,2,3,4
"512",11,31,"male",112,52,57,1685,"1",77,96,4.3,2.7
"513",11,31,"male",113,67,71,1848,"1",148,200,4.8,4.1
"514",11,31,"male",114,55,40,1562,"0",45,33,3.5,4.5
"515",11,31,"male",115,66,58,1171,"0",134,99,3.3,4.6
"516",11,31,"male",116,68,40,2303,"0",166,33,3.1,4.5
"517",11,31,"male",117,54,81,1935,"0",85,22,2.5,4.6
"518",11,31,"male",118,28,18,3428,"1",18,10,3.2,3.3
"519",11,31,"male",119,10,5,1943,"0",5,2,3,5
"520",11,31,"male",120,22,72,4847,"0",12,38,3.8,3.3
"521",11,31,"male",121,48,40,1729,"0",53,33,4.2,4.5
"522",11,31,"male",122,12,31,2238,"1",6,21,4.2,1.9
"523",11,31,"male",123,76,53,1601,"1",348,84,4.2,4.5
"524",11,31,"male",124,29,46,4498,"0",19,47,4.3,3.9
"525",11,31,"male",125,82,64,1470,"1",89,120,4.3,3.4
"526",11,31,"male",126,4,22,2277,"0",2,12,4,3.8
"527",11,31,"male",127,9,47,3344,"1",4,49,5,3.9
"528",11,31,"male",128,51,23,2595,"0",76,12,3.2,4.7
"529",11,31,"male",129,56,23,2254,"0",94,12,3.9,4.7
"530",11,31,"male",130,52,36,1988,"1",77,24,4.3,4.6
"531",11,31,"male",131,71,50,1124,"1",200,74,4.1,3.3
"532",11,31,"male",132,79,48,1509,"0",416,53,3.6,4.2
"533",11,31,"male",133,59,81,2020,"0",96,22,3.3,4.6
"534",11,31,"male",134,78,67,1946,"1",396,148,4.7,4.8
"535",11,31,"male",135,81,82,2273,"0",22,89,4.6,4.3
"536",11,31,"male",136,58,23,1737,"1",99,12,4.6,4.7
"537",11,31,"male",137,81,54,1702,"1",22,85,4.6,2.5
"538",11,31,"male",138,66,68,1805,"1",134,166,3.3,3.1
"539",11,31,"male",139,44,64,1224,"1",45,120,4,3.4
"540",11,31,"male",140,56,53,1214,"0",94,84,3.9,4.5
"541",11,31,"male",141,80,7,1154,"1",988,3,4.3,4.7
"542",11,31,"male",142,58,70,1753,"1",99,172,4.6,4.1
"543",11,31,"male",143,58,45,1688,"1",99,46,4.6,4.7
"544",11,31,"male",144,32,30,1229,"0",22,20,3.1,4
"545",11,31,"male",145,29,50,2900,"1",19,74,4.3,3.3
"546",11,31,"male",146,61,51,1596,"1",106,76,4.3,3.2
"547",11,31,"male",147,30,8,1486,"1",20,4,4,4.2
"548",11,31,"male",148,49,70,1944,"1",57,172,4.5,4.1
"549",11,31,"male",149,11,27,1392,"1",6,18,3.7,2.8
"550",11,31,"male",150,65,59,2007,"1",126,96,3.2,3.3
"551",11,31,"male",151,71,42,2921,"1",200,39,4.1,4.6
"552",11,31,"male",152,22,9,2230,"0",12,4,3.8,5
"553",11,31,"male",153,3,1,1286,"0",2,1,2.5,5
"554",11,31,"male",154,83,19,2423,"1",24,10,4,4.3
"555",11,31,"male",155,4,20,2032,"0",2,11,4,3.9
"556",11,31,"male",156,47,8,1912,"1",49,4,3.9,4.2
"557",11,31,"male",157,66,22,2199,"1",134,12,3.3,3.8
"558",11,31,"male",158,59,40,1506,"0",96,33,3.3,4.5
"559",11,31,"male",159,71,34,1985,"1",200,23,4.1,4.8
"560",11,31,"male",160,40,69,2721,"0",33,167,4.5,3.9
"561",11,31,"male",161,18,15,2533,"0",10,8,3.3,3.5
"562",11,31,"male",162,17,44,3859,"0",9,45,4.9,4
"563",11,31,"male",163,30,20,1358,"1",20,11,4,3.9
"564",11,31,"male",164,14,39,1424,"0",8,31,3.9,3.8
"565",11,31,"male",165,39,74,1807,"0",31,284,3.8,3.6
"566",11,31,"male",166,17,68,2457,"1",9,166,4.9,3.1
"567",11,31,"male",167,69,1,1814,"1",167,1,3.9,5
"568",11,31,"male",168,2,54,2547,"1",2,85,3,2.5
"569",11,31,"male",169,41,45,1524,"0",35,46,3.6,4.7
"570",11,31,"male",170,75,23,1430,"1",346,12,4.6,4.7
"571",11,31,"male",171,42,63,1893,"1",39,113,4.6,3.3
"572",11,31,"male",172,60,5,1602,"1",104,2,4.7,5
"573",11,31,"male",173,40,72,1396,"1",33,38,4.5,3.3
"574",11,31,"male",174,21,77,4414,"1",11,354,4.6,3.5
"575",11,31,"male",175,67,70,1463,"1",148,172,4.8,4.1
"576",11,31,"male",176,49,54,926,"1",57,85,4.5,2.5
"577",11,31,"male",177,26,15,2119,"0",17,8,3.1,3.5
"578",11,31,"male",178,21,64,2561,"1",11,120,4.6,3.4
"579",11,31,"male",179,34,73,3524,"1",23,272,4.8,3.8
"580",11,31,"male",180,43,34,2028,"1",44,23,4.6,4.8
"581",11,31,"male",181,15,28,1796,"1",8,18,3.5,3.2
"582",11,31,"male",182,48,38,1871,"1",53,59,4.2,4
"583",11,31,"male",183,78,25,1254,"1",396,13,4.7,4.1
"584",11,31,"male",184,24,31,1986,"1",13,21,3.5,1.9
"585",11,31,"male",185,5,61,1714,"0",2,106,5,4.3
"586",11,31,"male",186,10,31,1949,"1",5,21,3,1.9
"587",11,31,"male",187,78,80,1588,"1",396,988,4.7,4.3
"588",11,31,"male",188,1,14,2515,"0",1,8,5,3.9
"589",11,31,"male",189,80,62,5470,"0",988,111,4.3,4.5
"590",11,31,"male",190,45,1,1823,"1",46,1,4.7,5
"591",11,31,"male",191,68,61,1311,"0",166,106,3.1,4.3
"592",11,31,"male",192,57,43,1157,"0",96,44,2.7,4.6
"593",11,31,"male",193,23,72,2319,"1",12,38,4.7,3.3
"594",11,31,"male",194,81,83,1346,"1",22,24,4.6,4
"595",11,31,"male",195,43,7,1521,"1",44,3,4.6,4.7
"596",11,31,"male",196,7,49,1394,"0",3,57,4.7,4.5
"597",11,31,"male",197,33,41,2953,"0",22,35,3.9,3.6
"598",11,31,"male",198,15,27,2382,"1",8,18,3.5,2.8
"599",11,31,"male",199,42,79,1261,"1",39,416,4.6,3.6
"600",11,31,"male",200,9,30,1116,"0",4,20,5,4
"601",12,24,"female",1,43,71,12996,"0",44,200,4.6,4.1
"602",12,24,"female",2,41,11,6090,"1",35,6,3.6,3.7
"603",12,24,"female",3,18,16,3656,"0",10,9,3.3,3.9
"604",12,24,"female",4,51,25,2384,"1",76,13,3.2,4.1
"605",12,24,"female",5,60,70,1550,"1",104,172,4.7,4.1
"606",12,24,"female",6,9,36,2622,"0",4,24,5,4.6
"607",12,24,"female",7,18,51,2674,"0",10,76,3.3,3.2
"608",12,24,"female",8,48,21,2419,"0",53,11,4.2,4.6
"609",12,24,"female",9,3,1,3167,"0",2,1,2.5,5
"610",12,24,"female",10,55,68,1292,"1",45,166,3.5,3.1
"611",12,24,"female",11,33,77,888,"1",22,354,3.9,3.5
"612",12,24,"female",12,22,69,1510,"0",12,167,3.8,3.9
"613",12,24,"female",13,76,36,4841,"1",348,24,4.2,4.6
"614",12,24,"female",14,50,14,7325,"0",74,8,3.3,3.9
"615",12,24,"female",15,61,76,1287,"1",106,348,4.3,4.2
"616",12,24,"female",16,69,53,1028,"0",167,84,3.9,4.5
"617",12,24,"female",17,71,58,780,"0",200,99,4.1,4.6
"618",12,24,"female",18,74,30,2015,"1",284,20,3.6,4
"619",12,24,"female",19,79,45,1852,"1",416,46,3.6,4.7
"620",12,24,"female",20,83,7,2817,"1",24,3,4,4.7
"621",12,24,"female",21,38,59,1324,"0",59,96,4,3.3
"622",12,24,"female",22,24,7,3222,"0",13,3,3.5,4.7
"623",12,24,"female",23,58,1,1136,"0",99,1,4.6,5
"624",12,24,"female",24,20,8,996,"1",11,4,3.9,4.2
"625",12,24,"female",25,27,4,925,"0",18,2,2.8,4
"626",12,24,"female",26,41,8,1017,"0",35,4,3.6,4.2
"627",12,24,"female",27,80,14,2130,"1",988,8,4.3,3.9
"628",12,24,"female",28,59,47,874,"0",96,49,3.3,3.9
"629",12,24,"female",29,9,75,713,"0",4,346,5,4.6
"630",12,24,"female",30,42,9,687,"1",39,4,4.6,5
"631",12,24,"female",31,33,57,1059,"1",22,96,3.9,2.7
"632",12,24,"female",32,73,69,1242,"0",272,167,3.8,3.9
"633",12,24,"female",33,41,59,1161,"1",35,96,3.6,3.3
"634",12,24,"female",34,24,72,7834,"0",13,38,3.5,3.3
"635",12,24,"female",35,25,55,799,"1",13,45,4.1,3.5
"636",12,24,"female",36,61,51,673,"1",106,76,4.3,3.2
"637",12,24,"female",37,69,21,807,"0",167,11,3.9,4.6
"638",12,24,"female",38,45,69,937,"1",46,167,4.7,3.9
"639",12,24,"female",39,16,79,2163,"1",9,416,3.9,3.6
"640",12,24,"female",40,8,50,3419,"1",4,74,4.2,3.3
"641",12,24,"female",41,53,76,2812,"1",84,348,4.5,4.2
"642",12,24,"female",42,28,57,4376,"1",18,96,3.2,2.7
"643",12,24,"female",43,37,79,4912,"1",27,416,3.7,3.6
"644",12,24,"female",44,74,77,962,"1",284,354,3.6,3.5
"645",12,24,"female",45,57,42,685,"0",96,39,2.7,4.6
"646",12,24,"female",46,9,43,945,"1",4,44,5,4.6
"647",12,24,"female",47,53,73,732,"1",84,272,4.5,3.8
"648",12,24,"female",48,48,60,1056,"0",53,104,4.2,4.7
"649",12,24,"female",49,25,20,1031,"1",13,11,4.1,3.9
"650",12,24,"female",50,39,51,975,"1",31,76,3.8,3.2
"651",12,24,"female",51,41,57,1097,"1",35,96,3.6,2.7
"652",12,24,"female",52,53,42,959,"0",84,39,4.5,4.6
"653",12,24,"female",53,49,7,842,"0",57,3,4.5,4.7
"654",12,24,"female",54,21,39,922,"1",11,31,4.6,3.8
"655",12,24,"female",55,11,27,901,"1",6,18,3.7,2.8
"656",12,24,"female",56,43,39,817,"1",44,31,4.6,3.8
"657",12,24,"female",57,38,50,562,"0",59,74,4,3.3
"658",12,24,"female",58,44,63,718,"1",45,113,4,3.3
"659",12,24,"female",59,13,12,803,"0",7,6,3.3,4.2
"660",12,24,"female",60,9,47,725,"1",4,49,5,3.9
"661",12,24,"female",61,48,69,714,"1",53,167,4.2,3.9
"662",12,24,"female",62,22,1,783,"0",12,1,3.8,5
"663",12,24,"female",63,51,41,1041,"0",76,35,3.2,3.6
"664",12,24,"female",64,19,8,1049,"1",10,4,4.3,4.2
"665",12,24,"female",65,6,69,1056,"1",3,167,4,3.9
"666",12,24,"female",66,20,82,1399,"0",11,89,3.9,4.3
"667",12,24,"female",67,43,62,1006,"1",44,111,4.6,4.5
"668",12,24,"female",68,54,18,790,"0",85,10,2.5,3.3
"669",12,24,"female",69,45,47,840,"1",46,49,4.7,3.9
"670",12,24,"female",70,30,50,936,"1",20,74,4,3.3
"671",12,24,"female",71,30,33,835,"1",20,22,4,3.9
"672",12,24,"female",72,77,58,1027,"0",354,99,3.5,4.6
"673",12,24,"female",73,45,66,875,"1",46,134,4.7,3.3
"674",12,24,"female",74,68,18,762,"0",166,10,3.1,3.3
"675",12,24,"female",75,60,67,781,"0",104,148,4.7,4.8
"676",12,24,"female",76,75,9,704,"1",346,4,4.6,5
"677",12,24,"female",77,36,53,838,"1",24,84,4.6,4.5
"678",12,24,"female",78,25,51,869,"1",13,76,4.1,3.2
"679",12,24,"female",79,33,79,1027,"1",22,416,3.9,3.6
"680",12,24,"female",80,4,46,747,"1",2,47,4,3.9
"681",12,24,"female",81,20,27,816,"1",11,18,3.9,2.8
"682",12,24,"female",82,70,12,1072,"0",172,6,4.1,4.2
"683",12,24,"female",83,26,19,774,"0",17,10,3.1,4.3
"684",12,24,"female",84,81,82,809,"1",22,89,4.6,4.3
"685",12,24,"female",85,43,7,795,"0",44,3,4.6,4.7
"686",12,24,"female",86,66,80,861,"0",134,988,3.3,4.3
"687",12,24,"female",87,78,80,859,"1",396,988,4.7,4.3
"688",12,24,"female",88,74,6,747,"0",284,3,3.6,4
"689",12,24,"female",89,49,5,1038,"0",57,2,4.5,5
"690",12,24,"female",90,71,24,981,"1",200,13,4.1,3.5
"691",12,24,"female",91,44,5,1119,"0",45,2,4,5
"692",12,24,"female",92,22,1,739,"0",12,1,3.8,5
"693",12,24,"female",93,8,37,967,"1",4,27,4.2,3.7
"694",12,24,"female",94,64,52,1090,"0",120,77,3.4,4.3
"695",12,24,"female",95,32,11,1382,"0",22,6,3.1,3.7
"696",12,24,"female",96,26,6,751,"0",17,3,3.1,4
"697",12,24,"female",97,31,1,739,"0",21,1,1.9,5
"698",12,24,"female",98,58,22,1063,"1",99,12,4.6,3.8
"699",12,24,"female",99,10,54,1005,"1",5,85,3,2.5
"700",12,24,"female",100,76,9,1029,"0",348,4,4.2,5
"701",12,24,"female",101,63,81,1662,"0",113,22,3.3,4.6
"702",12,24,"female",102,19,66,842,"1",10,134,4.3,3.3
"703",12,24,"female",103,23,65,682,"1",12,126,4.7,3.2
"704",12,24,"female",104,41,17,674,"0",35,9,3.6,4.9
"705",12,24,"female",105,39,41,745,"1",31,35,3.8,3.6
"706",12,24,"female",106,6,68,1101,"1",3,166,4,3.1
"707",12,24,"female",107,66,8,801,"0",134,4,3.3,4.2
"708",12,24,"female",108,56,29,1219,"0",94,19,3.9,4.3
"709",12,24,"female",109,52,73,1154,"1",77,272,4.3,3.8
"710",12,24,"female",110,39,56,788,"0",31,94,3.8,3.9
"711",12,24,"female",111,59,42,678,"0",96,39,3.3,4.6
"712",12,24,"female",112,14,37,941,"1",8,27,3.9,3.7
"713",12,24,"female",113,29,74,985,"1",19,284,4.3,3.6
"714",12,24,"female",114,55,39,1506,"0",45,31,3.5,3.8
"715",12,24,"female",115,56,9,1461,"0",94,4,3.9,5
"716",12,24,"female",116,3,1,715,"0",2,1,2.5,5
"717",12,24,"female",117,19,56,1217,"1",10,94,4.3,3.9
"718",12,24,"female",118,60,80,785,"1",104,988,4.7,4.3
"719",12,24,"female",119,43,11,995,"1",44,6,4.6,3.7
"720",12,24,"female",120,81,35,715,"1",22,24,4.6,4.3
"721",12,24,"female",121,33,21,720,"0",22,11,3.9,4.6
"722",12,24,"female",122,18,17,709,"0",10,9,3.3,4.9
"723",12,24,"female",123,77,1,891,"0",354,1,3.5,5
"724",12,24,"female",124,69,1,745,"0",167,1,3.9,5
"725",12,24,"female",125,65,36,669,"0",126,24,3.2,4.6
"726",12,24,"female",126,24,5,772,"0",13,2,3.5,5
"727",12,24,"female",127,43,59,743,"1",44,96,4.6,3.3
"728",12,24,"female",128,22,24,939,"1",12,13,3.8,3.5
"729",12,24,"female",129,9,77,791,"1",4,354,5,3.5
"730",12,24,"female",130,3,31,1081,"1",2,21,2.5,1.9
"731",12,24,"female",131,41,19,1006,"0",35,10,3.6,4.3
"732",12,24,"female",132,65,62,694,"0",126,111,3.2,4.5
"733",12,24,"female",133,10,7,685,"0",5,3,3,4.7
"734",12,24,"female",134,59,11,707,"0",96,6,3.3,3.7
"735",12,24,"female",135,71,19,649,"0",200,10,4.1,4.3
"736",12,24,"female",136,13,31,2881,"1",7,21,3.3,1.9
"737",12,24,"female",137,15,27,857,"1",8,18,3.5,2.8
"738",12,24,"female",138,17,22,792,"1",9,12,4.9,3.8
"739",12,24,"female",139,54,33,714,"0",85,22,2.5,3.9
"740",12,24,"female",140,11,51,1152,"1",6,76,3.7,3.2
"741",12,24,"female",141,17,82,866,"1",9,89,4.9,4.3
"742",12,24,"female",142,40,56,1905,"1",33,94,4.5,3.9
"743",12,24,"female",143,60,47,1426,"1",104,49,4.7,3.9
"744",12,24,"female",144,7,9,1593,"1",3,4,4.7,5
"745",12,24,"female",145,39,80,1433,"0",31,988,3.8,4.3
"746",12,24,"female",146,39,20,2272,"1",31,11,3.8,3.9
"747",12,24,"female",147,7,62,1314,"0",3,111,4.7,4.5
"748",12,24,"female",148,9,44,1470,"0",4,45,5,4
"749",12,24,"female",149,59,65,2227,"0",96,126,3.3,3.2
"750",12,24,"female",150,8,18,3462,"1",4,10,4.2,3.3
"751",12,24,"female",151,51,29,2966,"0",76,19,3.2,4.3
"752",12,24,"female",152,50,9,747,"1",74,4,3.3,5
"753",12,24,"female",153,10,19,639,"0",5,10,3,4.3
"754",12,24,"female",154,50,56,823,"0",74,94,3.3,3.9
"755",12,24,"female",155,23,81,1032,"1",12,22,4.7,4.6
"756",12,24,"female",156,50,9,1440,"0",74,4,3.3,5
"757",12,24,"female",157,73,47,1702,"0",272,49,3.8,3.9
"758",12,24,"female",158,57,16,2833,"1",96,9,2.7,3.9
"759",12,24,"female",159,38,34,571,"0",59,23,4,4.8
"760",12,24,"female",160,47,4,790,"1",49,2,3.9,4
"761",12,24,"female",161,23,64,1064,"1",12,120,4.7,3.4
"762",12,24,"female",162,61,7,3630,"1",106,3,4.3,4.7
"763",12,24,"female",163,64,60,1911,"0",120,104,3.4,4.7
"764",12,24,"female",164,13,11,1321,"0",7,6,3.3,3.7
"765",12,24,"female",165,65,16,964,"0",126,9,3.2,3.9
"766",12,24,"female",166,45,15,911,"1",46,8,4.7,3.5
"767",12,24,"female",167,39,4,540,"1",31,2,3.8,4
"768",12,24,"female",168,39,59,792,"1",31,96,3.8,3.3
"769",12,24,"female",169,10,54,778,"0",5,85,3,2.5
"770",12,24,"female",170,5,38,749,"1",2,59,5,4
"771",12,24,"female",171,64,36,768,"0",120,24,3.4,4.6
"772",12,24,"female",172,27,10,819,"0",18,5,2.8,3
"773",12,24,"female",173,35,72,836,"1",24,38,4.3,3.3
"774",12,24,"female",174,71,34,820,"0",200,23,4.1,4.8
"775",12,24,"female",175,1,10,708,"1",1,5,5,3
"776",12,24,"female",176,59,1,938,"0",96,1,3.3,5
"777",12,24,"female",177,13,26,1110,"1",7,17,3.3,3.1
"778",12,24,"female",178,4,64,778,"1",2,120,4,3.4
"779",12,24,"female",179,31,29,2828,"0",21,19,1.9,4.3
"780",12,24,"female",180,65,43,695,"0",126,44,3.2,4.6
"781",12,24,"female",181,66,21,589,"0",134,11,3.3,4.6
"782",12,24,"female",182,71,7,631,"0",200,3,4.1,4.7
"783",12,24,"female",183,73,48,865,"0",272,53,3.8,4.2
"784",12,24,"female",184,66,6,736,"0",134,3,3.3,4
"785",12,24,"female",185,15,59,1412,"1",8,96,3.5,3.3
"786",12,24,"female",186,39,55,1948,"1",31,45,3.8,3.5
"787",12,24,"female",187,5,29,892,"1",2,19,5,4.3
"788",12,24,"female",188,17,43,1257,"1",9,44,4.9,4.6
"789",12,24,"female",189,41,39,1351,"0",35,31,3.6,3.8
"790",12,24,"female",190,55,42,1456,"0",45,39,3.5,4.6
"791",12,24,"female",191,13,57,694,"1",7,96,3.3,2.7
"792",12,24,"female",192,24,72,1116,"1",13,38,3.5,3.3
"793",12,24,"female",193,70,79,881,"1",172,416,4.1,3.6
"794",12,24,"female",194,61,70,1215,"1",106,172,4.3,4.1
"795",12,24,"female",195,20,63,2399,"1",11,113,3.9,3.3
"796",12,24,"female",196,11,4,765,"0",6,2,3.7,4
"797",12,24,"female",197,34,55,752,"1",23,45,4.8,3.5
"798",12,24,"female",198,20,50,707,"1",11,74,3.9,3.3
"799",12,24,"female",199,60,62,1112,"1",104,111,4.7,4.5
"800",12,24,"female",200,36,61,940,"1",24,106,4.6,4.3
"801",13,26,"female",1,7,37,8659,"0",3,27,4.7,3.7
"802",13,26,"female",2,83,19,4605,"1",24,10,4,4.3
"803",13,26,"female",3,41,9,4819,"0",35,4,3.6,5
"804",13,26,"female",4,58,3,2537,"1",99,2,4.6,2.5
"805",13,26,"female",5,58,62,12719,"0",99,111,4.6,4.5
"806",13,26,"female",6,40,12,2224,"1",33,6,4.5,4.2
"807",13,26,"female",7,78,50,1967,"1",396,74,4.7,3.3
"808",13,26,"female",8,7,14,5882,"1",3,8,4.7,3.9
"809",13,26,"female",9,50,33,3039,"1",74,22,3.3,3.9
"810",13,26,"female",10,19,44,3370,"0",10,45,4.3,4
"811",13,26,"female",11,41,55,4246,"0",35,45,3.6,3.5
"812",13,26,"female",12,55,12,10344,"0",45,6,3.5,4.2
"813",13,26,"female",13,24,6,4324,"0",13,3,3.5,4
"814",13,26,"female",14,60,66,3475,"1",104,134,4.7,3.3
"815",13,26,"female",15,26,17,3746,"0",17,9,3.1,4.9
"816",13,26,"female",16,41,1,3584,"1",35,1,3.6,5
"817",13,26,"female",17,3,1,3927,"0",2,1,2.5,5
"818",13,26,"female",18,24,23,2217,"0",13,12,3.5,4.7
"819",13,26,"female",19,38,53,2334,"0",59,84,4,4.5
"820",13,26,"female",20,43,52,4103,"0",44,77,4.6,4.3
"821",13,26,"female",21,29,83,2419,"1",19,24,4.3,4
"822",13,26,"female",22,70,52,3103,"1",172,77,4.1,4.3
"823",13,26,"female",23,54,36,1756,"0",85,24,2.5,4.6
"824",13,26,"female",24,33,6,3662,"1",22,3,3.9,4
"825",13,26,"female",25,9,2,1799,"1",4,2,5,3
"826",13,26,"female",26,59,17,2382,"0",96,9,3.3,4.9
"827",13,26,"female",27,6,56,3135,"1",3,94,4,3.9
"828",13,26,"female",28,73,52,2572,"0",272,77,3.8,4.3
"829",13,26,"female",29,71,40,3011,"0",200,33,4.1,4.5
"830",13,26,"female",30,14,70,3100,"0",8,172,3.9,4.1
"831",13,26,"female",31,26,20,2732,"0",17,11,3.1,3.9
"832",13,26,"female",32,22,16,4054,"0",12,9,3.8,3.9
"833",13,26,"female",33,36,65,2370,"1",24,126,4.6,3.2
"834",13,26,"female",34,72,19,4110,"0",38,10,3.3,4.3
"835",13,26,"female",35,28,6,3680,"0",18,3,3.2,4
"836",13,26,"female",36,73,33,4581,"0",272,22,3.8,3.9
"837",13,26,"female",37,25,64,3308,"1",13,120,4.1,3.4
"838",13,26,"female",38,40,46,3080,"1",33,47,4.5,3.9
"839",13,26,"female",39,59,35,1525,"0",96,24,3.3,4.3
"840",13,26,"female",40,37,4,3924,"1",27,2,3.7,4
"841",13,26,"female",41,10,6,2892,"0",5,3,3,4
"842",13,26,"female",42,58,23,5001,"1",99,12,4.6,4.7
"843",13,26,"female",43,5,66,4389,"1",2,134,5,3.3
"844",13,26,"female",44,22,28,3414,"1",12,18,3.8,3.2
"845",13,26,"female",45,25,23,1754,"0",13,12,4.1,4.7
"846",13,26,"female",46,83,51,2606,"1",24,76,4,3.2
"847",13,26,"female",47,68,57,3453,"1",166,96,3.1,2.7
"848",13,26,"female",48,36,69,3794,"1",24,167,4.6,3.9
"849",13,26,"female",49,52,73,1495,"1",77,272,4.3,3.8
"850",13,26,"female",50,70,5,2745,"1",172,2,4.1,5
"851",13,26,"female",51,49,76,2017,"1",57,348,4.5,4.2
"852",13,26,"female",52,53,36,5190,"0",84,24,4.5,4.6
"853",13,26,"female",53,17,31,1703,"1",9,21,4.9,1.9
"854",13,26,"female",54,50,35,1514,"0",74,24,3.3,4.3
"855",13,26,"female",55,10,8,1653,"0",5,4,3,4.2
"856",13,26,"female",56,45,21,2233,"1",46,11,4.7,4.6
"857",13,26,"female",57,61,71,2116,"1",106,200,4.3,4.1
"858",13,26,"female",58,44,74,2100,"1",45,284,4,3.6
"859",13,26,"female",59,63,80,2304,"0",113,988,3.3,4.3
"860",13,26,"female",60,40,57,1884,"1",33,96,4.5,2.7
"861",13,26,"female",61,58,79,2247,"1",99,416,4.6,3.6
"862",13,26,"female",62,83,19,3422,"0",24,10,4,4.3
"863",13,26,"female",63,30,36,1611,"0",20,24,4,4.6
"864",13,26,"female",64,56,59,3324,"1",94,96,3.9,3.3
"865",13,26,"female",65,31,25,2234,"0",21,13,1.9,4.1
"866",13,26,"female",66,33,1,4551,"1",22,1,3.9,5
"867",13,26,"female",67,16,26,3144,"1",9,17,3.9,3.1
"868",13,26,"female",68,22,4,3509,"1",12,2,3.8,4
"869",13,26,"female",69,34,41,1893,"1",23,35,4.8,3.6
"870",13,26,"female",70,51,42,1855,"0",76,39,3.2,4.6
"871",13,26,"female",71,15,65,2111,"1",8,126,3.5,3.2
"872",13,26,"female",72,7,24,2631,"1",3,13,4.7,3.5
"873",13,26,"female",73,12,37,2090,"1",6,27,4.2,3.7
"874",13,26,"female",74,45,48,1678,"1",46,53,4.7,4.2
"875",13,26,"female",75,71,45,1549,"0",200,46,4.1,4.7
"876",13,26,"female",76,65,45,4091,"0",126,46,3.2,4.7
"877",13,26,"female",77,66,35,1060,"0",134,24,3.3,4.3
"878",13,26,"female",78,79,69,2133,"0",416,167,3.6,3.9
"879",13,26,"female",79,20,12,1704,"0",11,6,3.9,4.2
"880",13,26,"female",80,80,75,2907,"0",988,346,4.3,4.6
"881",13,26,"female",81,77,69,1143,"0",354,167,3.5,3.9
"882",13,26,"female",82,38,42,1909,"0",59,39,4,4.6
"883",13,26,"female",83,67,78,2251,"1",148,396,4.8,4.7
"884",13,26,"female",84,1,41,3039,"0",1,35,5,3.6
"885",13,26,"female",85,30,37,1652,"1",20,27,4,3.7
"886",13,26,"female",86,19,65,1252,"1",10,126,4.3,3.2
"887",13,26,"female",87,73,62,1149,"0",272,111,3.8,4.5
"888",13,26,"female",88,58,80,1325,"1",99,988,4.6,4.3
"889",13,26,"female",89,44,1,1600,"1",45,1,4,5
"890",13,26,"female",90,32,23,1816,"0",22,12,3.1,4.7
"891",13,26,"female",91,6,50,3971,"1",3,74,4,3.3
"892",13,26,"female",92,38,69,2259,"1",59,167,4,3.9
"893",13,26,"female",93,23,31,1757,"1",12,21,4.7,1.9
"894",13,26,"female",94,59,16,1955,"0",96,9,3.3,3.9
"895",13,26,"female",95,63,25,1430,"0",113,13,3.3,4.1
"896",13,26,"female",96,10,7,1411,"0",5,3,3,4.7
"897",13,26,"female",97,49,73,1640,"1",57,272,4.5,3.8
"898",13,26,"female",98,36,63,1239,"1",24,113,4.6,3.3
"899",13,26,"female",99,28,23,2651,"0",18,12,3.2,4.7
"900",13,26,"female",100,63,34,1539,"0",113,23,3.3,4.8
"901",13,26,"female",101,4,26,3713,"0",2,17,4,3.1
"902",13,26,"female",102,2,31,2172,"1",2,21,3,1.9
"903",13,26,"female",103,43,69,1766,"1",44,167,4.6,3.9
"904",13,26,"female",104,51,14,2518,"0",76,8,3.2,3.9
"905",13,26,"female",105,8,75,2029,"0",4,346,4.2,4.6
"906",13,26,"female",106,57,2,2946,"1",96,2,2.7,3
"907",13,26,"female",107,23,32,1668,"1",12,22,4.7,3.1
"908",13,26,"female",108,42,7,2815,"1",39,3,4.6,4.7
"909",13,26,"female",109,60,74,1245,"1",104,284,4.7,3.6
"910",13,26,"female",110,51,75,1004,"0",76,346,3.2,4.6
"911",13,26,"female",111,65,11,7159,"0",126,6,3.2,3.7
"912",13,26,"female",112,33,37,1400,"1",22,27,3.9,3.7
"913",13,26,"female",113,6,59,2242,"1",3,96,4,3.3
"914",13,26,"female",114,70,45,1911,"0",172,46,4.1,4.7
"915",13,26,"female",115,73,83,1200,"0",272,24,3.8,4
"916",13,26,"female",116,58,71,1223,"1",99,200,4.6,4.1
"917",13,26,"female",117,54,72,899,"0",85,38,2.5,3.3
"918",13,26,"female",118,56,6,2181,"1",94,3,3.9,4
"919",13,26,"female",119,43,76,1187,"1",44,348,4.6,4.2
"920",13,26,"female",120,66,5,2764,"0",134,2,3.3,5
"921",13,26,"female",121,63,47,1234,"0",113,49,3.3,3.9
"922",13,26,"female",122,47,42,1078,"0",49,39,3.9,4.6
"923",13,26,"female",123,65,81,1000,"0",126,22,3.2,4.6
"924",13,26,"female",124,76,36,1109,"0",348,24,4.2,4.6
"925",13,26,"female",125,4,35,1541,"0",2,24,4,4.3
"926",13,26,"female",126,50,22,930,"0",74,12,3.3,3.8
"927",13,26,"female",127,37,14,1036,"0",27,8,3.7,3.9
"928",13,26,"female",128,52,57,1063,"1",77,96,4.3,2.7
"929",13,26,"female",129,9,7,1877,"1",4,3,5,4.7
"930",13,26,"female",130,47,19,1035,"0",49,10,3.9,4.3
"931",13,26,"female",131,61,17,1152,"0",106,9,4.3,4.9
"932",13,26,"female",132,25,30,2309,"1",13,20,4.1,4
"933",13,26,"female",133,31,12,1479,"0",21,6,1.9,4.2
"934",13,26,"female",134,73,45,1157,"0",272,46,3.8,4.7
"935",13,26,"female",135,27,11,1174,"0",18,6,2.8,3.7
"936",13,26,"female",136,43,77,1291,"1",44,354,4.6,3.5
"937",13,26,"female",137,8,46,1171,"1",4,47,4.2,3.9
"938",13,26,"female",138,32,7,1200,"0",22,3,3.1,4.7
"939",13,26,"female",139,34,40,1725,"1",23,33,4.8,4.5
"940",13,26,"female",140,69,73,1352,"1",167,272,3.9,3.8
"941",13,26,"female",141,58,66,930,"1",99,134,4.6,3.3
"942",13,26,"female",142,12,80,5116,"0",6,988,4.2,4.3
"943",13,26,"female",143,69,21,1037,"0",167,11,3.9,4.6
"944",13,26,"female",144,77,37,1315,"0",354,27,3.5,3.7
"945",13,26,"female",145,6,69,3507,"1",3,167,4,3.9
"946",13,26,"female",146,34,55,1289,"1",23,45,4.8,3.5
"947",13,26,"female",147,57,21,1883,"0",96,11,2.7,4.6
"948",13,26,"female",148,33,64,1543,"1",22,120,3.9,3.4
"949",13,26,"female",149,63,29,1124,"0",113,19,3.3,4.3
"950",13,26,"female",150,67,14,1105,"1",148,8,4.8,3.9
"951",13,26,"female",151,35,17,1235,"0",24,9,4.3,4.9
"952",13,26,"female",152,21,74,1580,"1",11,284,4.6,3.6
"953",13,26,"female",153,16,62,1027,"0",9,111,3.9,4.5
"954",13,26,"female",154,72,17,1077,"0",38,9,3.3,4.9
"955",13,26,"female",155,43,1,1275,"1",44,1,4.6,5
"956",13,26,"female",156,19,72,1163,"1",10,38,4.3,3.3
"957",13,26,"female",157,5,59,1970,"1",2,96,5,3.3
"958",13,26,"female",158,22,68,1209,"1",12,166,3.8,3.1
"959",13,26,"female",159,73,1,3831,"0",272,1,3.8,5
"960",13,26,"female",160,15,26,1099,"1",8,17,3.5,3.1
"961",13,26,"female",161,60,70,900,"1",104,172,4.7,4.1
"962",13,26,"female",162,38,77,1002,"1",59,354,4,3.5
"963",13,26,"female",163,38,81,1211,"0",59,22,4,4.6
"964",13,26,"female",164,45,71,1100,"1",46,200,4.7,4.1
"965",13,26,"female",165,73,61,1065,"0",272,106,3.8,4.3
"966",13,26,"female",166,2,54,3547,"0",2,85,3,2.5
"967",13,26,"female",167,69,74,984,"1",167,284,3.9,3.6
"968",13,26,"female",168,58,9,2557,"0",99,4,4.6,5
"969",13,26,"female",169,42,82,1816,"1",39,89,4.6,4.3
"970",13,26,"female",170,47,81,772,"0",49,22,3.9,4.6
"971",13,26,"female",171,16,10,924,"1",9,5,3.9,3
"972",13,26,"female",172,49,56,928,"1",57,94,4.5,3.9
"973",13,26,"female",173,75,9,3142,"1",346,4,4.6,5
"974",13,26,"female",174,73,67,1125,"0",272,148,3.8,4.8
"975",13,26,"female",175,24,4,2526,"1",13,2,3.5,4
"976",13,26,"female",176,16,7,950,"0",9,3,3.9,4.7
"977",13,26,"female",177,38,56,1427,"1",59,94,4,3.9
"978",13,26,"female",178,61,22,844,"1",106,12,4.3,3.8
"979",13,26,"female",179,30,7,1613,"0",20,3,4,4.7
"980",13,26,"female",180,53,70,1104,"1",84,172,4.5,4.1
"981",13,26,"female",181,38,12,1056,"0",59,6,4,4.2
"982",13,26,"female",182,13,32,1702,"1",7,22,3.3,3.1
"983",13,26,"female",183,68,23,911,"0",166,12,3.1,4.7
"984",13,26,"female",184,35,54,1226,"1",24,85,4.3,2.5
"985",13,26,"female",185,1,80,5092,"0",1,988,5,4.3
"986",13,26,"female",186,77,74,1386,"0",354,284,3.5,3.6
"987",13,26,"female",187,32,6,1673,"0",22,3,3.1,4
"988",13,26,"female",188,64,5,1791,"0",120,2,3.4,5
"989",13,26,"female",189,62,68,1018,"1",111,166,4.5,3.1
"990",13,26,"female",190,17,30,817,"1",9,20,4.9,4
"991",13,26,"female",191,18,47,813,"0",10,49,3.3,3.9
"992",13,26,"female",192,82,9,1260,"0",89,4,4.3,5
"993",13,26,"female",193,6,59,1371,"1",3,96,4,3.3
"994",13,26,"female",194,61,36,1014,"0",106,24,4.3,4.6
"995",13,26,"female",195,52,45,1214,"0",77,46,4.3,4.7
"996",13,26,"female",196,41,65,1179,"1",35,126,3.6,3.2
"997",13,26,"female",197,80,9,1098,"0",988,4,4.3,5
"998",13,26,"female",198,47,40,1489,"0",49,33,3.9,4.5
"999",13,26,"female",199,80,67,854,"0",988,148,4.3,4.8
"1000",13,26,"female",200,46,81,644,"0",47,22,3.9,4.6
"1001",14,26,"female",1,45,50,8894,"1",46,74,4.7,3.3
"1002",14,26,"female",2,45,46,4298,"1",46,47,4.7,3.9
"1003",14,26,"female",3,1,41,17630,"0",1,35,5,3.6
"1004",14,26,"female",4,74,52,5463,"0",284,77,3.6,4.3
"1005",14,26,"female",5,17,57,4117,"1",9,96,4.9,2.7
"1006",14,26,"female",6,41,83,7059,"0",35,24,3.6,4
"1007",14,26,"female",7,67,80,4164,"0",148,988,4.8,4.3
"1008",14,26,"female",8,72,17,4780,"0",38,9,3.3,4.9
"1009",14,26,"female",9,27,22,11169,"0",18,12,2.8,3.8
"1010",14,26,"female",10,47,4,3905,"1",49,2,3.9,4
"1011",14,26,"female",11,13,12,2532,"0",7,6,3.3,4.2
"1012",14,26,"female",12,69,45,4690,"1",167,46,3.9,4.7
"1013",14,26,"female",13,17,65,3284,"1",9,126,4.9,3.2
"1014",14,26,"female",14,75,77,6089,"1",346,354,4.6,3.5
"1015",14,26,"female",15,45,58,5062,"0",46,99,4.7,4.6
"1016",14,26,"female",16,80,43,3107,"1",988,44,4.3,4.6
"1017",14,26,"female",17,35,70,2661,"0",24,172,4.3,4.1
"1018",14,26,"female",18,6,79,4078,"0",3,416,4,3.6
"1019",14,26,"female",19,25,51,3492,"1",13,76,4.1,3.2
"1020",14,26,"female",20,40,21,4884,"1",33,11,4.5,4.6
"1021",14,26,"female",21,18,23,2398,"0",10,12,3.3,4.7
"1022",14,26,"female",22,41,7,8113,"0",35,3,3.6,4.7
"1023",14,26,"female",23,11,64,3046,"0",6,120,3.7,3.4
"1024",14,26,"female",24,73,36,4141,"1",272,24,3.8,4.6
"1025",14,26,"female",25,65,66,5169,"0",126,134,3.2,3.3
"1026",14,26,"female",26,33,64,4564,"0",22,120,3.9,3.4
"1027",14,26,"female",27,5,25,2861,"0",2,13,5,4.1
"1028",14,26,"female",28,83,34,3247,"0",24,23,4,4.8
"1029",14,26,"female",29,5,65,3358,"1",2,126,5,3.2
"1030",14,26,"female",30,67,74,5363,"1",148,284,4.8,3.6
"1031",14,26,"female",31,54,39,5583,"0",85,31,2.5,3.8
"1032",14,26,"female",32,55,29,9589,"0",45,19,3.5,4.3
"1033",14,26,"female",33,64,21,9477,"0",120,11,3.4,4.6
"1034",14,26,"female",34,13,5,1934,"0",7,2,3.3,5
"1035",14,26,"female",35,36,49,2435,"1",24,57,4.6,4.5
"1036",14,26,"female",36,74,29,3279,"1",284,19,3.6,4.3
"1037",14,26,"female",37,11,52,2547,"0",6,77,3.7,4.3
"1038",14,26,"female",38,45,48,3284,"1",46,53,4.7,4.2
"1039",14,26,"female",39,40,37,4169,"1",33,27,4.5,3.7
"1040",14,26,"female",40,32,56,3970,"0",22,94,3.1,3.9
"1041",14,26,"female",41,48,74,6051,"1",53,284,4.2,3.6
"1042",14,26,"female",42,65,78,3863,"0",126,396,3.2,4.7
"1043",14,26,"female",43,76,42,6722,"1",348,39,4.2,4.6
"1044",14,26,"female",44,35,66,9120,"1",24,134,4.3,3.3
"1045",14,26,"female",45,30,5,5122,"1",20,2,4,5
"1046",14,26,"female",46,35,48,3898,"0",24,53,4.3,4.2
"1047",14,26,"female",47,18,68,9708,"1",10,166,3.3,3.1
"1048",14,26,"female",48,22,77,9700,"0",12,354,3.8,3.5
"1049",14,26,"female",49,65,25,4780,"0",126,13,3.2,4.1
"1050",14,26,"female",50,56,57,3873,"1",94,96,3.9,2.7
"1051",14,26,"female",51,65,45,3519,"0",126,46,3.2,4.7
"1052",14,26,"female",52,63,51,5140,"1",113,76,3.3,3.2
"1053",14,26,"female",53,40,76,3282,"0",33,348,4.5,4.2
"1054",14,26,"female",54,37,64,16231,"1",27,120,3.7,3.4
"1055",14,26,"female",55,55,36,4069,"0",45,24,3.5,4.6
"1056",14,26,"female",56,41,66,5624,"1",35,134,3.6,3.3
"1057",14,26,"female",57,78,67,5286,"1",396,148,4.7,4.8
"1058",14,26,"female",58,19,9,7553,"0",10,4,4.3,5
"1059",14,26,"female",59,18,16,5173,"0",10,9,3.3,3.9
"1060",14,26,"female",60,36,71,3448,"0",24,200,4.6,4.1
"1061",14,26,"female",61,3,31,4928,"1",2,21,2.5,1.9
"1062",14,26,"female",62,25,64,5746,"1",13,120,4.1,3.4
"1063",14,26,"female",63,72,23,5256,"0",38,12,3.3,4.7
"1064",14,26,"female",64,57,23,2494,"0",96,12,2.7,4.7
"1065",14,26,"female",65,79,20,5988,"0",416,11,3.6,3.9
"1066",14,26,"female",66,77,38,3182,"0",354,59,3.5,4
"1067",14,26,"female",67,54,53,3152,"0",85,84,2.5,4.5
"1068",14,26,"female",68,46,12,4362,"1",47,6,3.9,4.2
"1069",14,26,"female",69,37,18,2744,"1",27,10,3.7,3.3
"1070",14,26,"female",70,4,47,3810,"1",2,49,4,3.9
"1071",14,26,"female",71,25,41,5857,"1",13,35,4.1,3.6
"1072",14,26,"female",72,57,40,3712,"0",96,33,2.7,4.5
"1073",14,26,"female",73,17,69,4109,"1",9,167,4.9,3.9
"1074",14,26,"female",74,35,65,6377,"1",24,126,4.3,3.2
"1075",14,26,"female",75,60,76,13217,"0",104,348,4.7,4.2
"1076",14,26,"female",76,46,50,3311,"1",47,74,3.9,3.3
"1077",14,26,"female",77,70,17,2313,"1",172,9,4.1,4.9
"1078",14,26,"female",78,63,46,2090,"0",113,47,3.3,3.9
"1079",14,26,"female",79,62,70,4479,"1",111,172,4.5,4.1
"1080",14,26,"female",80,73,82,7078,"1",272,89,3.8,4.3
"1081",14,26,"female",81,3,1,2889,"0",2,1,2.5,5
"1082",14,26,"female",82,83,59,4288,"1",24,96,4,3.3
"1083",14,26,"female",83,32,30,6481,"0",22,20,3.1,4
"1084",14,26,"female",84,11,55,4382,"1",6,45,3.7,3.5
"1085",14,26,"female",85,76,1,2946,"1",348,1,4.2,5
"1086",14,26,"female",86,50,30,3091,"0",74,20,3.3,4
"1087",14,26,"female",87,5,24,6147,"1",2,13,5,3.5
"1088",14,26,"female",88,68,76,3068,"0",166,348,3.1,4.2
"1089",14,26,"female",89,48,71,3030,"0",53,200,4.2,4.1
"1090",14,26,"female",90,36,46,3032,"1",24,47,4.6,3.9
"1091",14,26,"female",91,16,32,7452,"1",9,22,3.9,3.1
"1092",14,26,"female",92,69,53,3022,"0",167,84,3.9,4.5
"1093",14,26,"female",93,19,37,15072,"0",10,27,4.3,3.7
"1094",14,26,"female",94,77,39,7236,"1",354,31,3.5,3.8
"1095",14,26,"female",95,43,79,5879,"1",44,416,4.6,3.6
"1096",14,26,"female",96,11,5,5112,"0",6,2,3.7,5
"1097",14,26,"female",97,51,40,3616,"0",76,33,3.2,4.5
"1098",14,26,"female",98,25,40,3592,"0",13,33,4.1,4.5
"1099",14,26,"female",99,16,32,5662,"1",9,22,3.9,3.1
"1100",14,26,"female",100,28,68,6932,"1",18,166,3.2,3.1
"1101",14,26,"female",101,82,69,9420,"1",89,167,4.3,3.9
"1102",14,26,"female",102,38,59,4345,"1",59,96,4,3.3
"1103",14,26,"female",103,36,1,2757,"1",24,1,4.6,5
"1104",14,26,"female",104,50,24,6881,"1",74,13,3.3,3.5
"1105",14,26,"female",105,72,24,5231,"1",38,13,3.3,3.5
"1106",14,26,"female",106,23,58,3166,"0",12,99,4.7,4.6
"1107",14,26,"female",107,42,56,5918,"1",39,94,4.6,3.9
"1108",14,26,"female",108,31,12,2551,"0",21,6,1.9,4.2
"1109",14,26,"female",109,33,37,7896,"1",22,27,3.9,3.7
"1110",14,26,"female",110,21,54,2578,"1",11,85,4.6,2.5
"1111",14,26,"female",111,76,81,3545,"1",348,22,4.2,4.6
"1112",14,26,"female",112,46,63,3715,"1",47,113,3.9,3.3
"1113",14,26,"female",113,51,46,4977,"0",76,47,3.2,3.9
"1114",14,26,"female",114,69,12,2638,"1",167,6,3.9,4.2
"1115",14,26,"female",115,30,47,3938,"0",20,49,4,3.9
"1116",14,26,"female",116,73,17,4957,"0",272,9,3.8,4.9
"1117",14,26,"female",117,83,7,8165,"1",24,3,4,4.7
"1118",14,26,"female",118,31,20,7029,"0",21,11,1.9,3.9
"1119",14,26,"female",119,52,66,3695,"1",77,134,4.3,3.3
"1120",14,26,"female",120,35,23,4344,"0",24,12,4.3,4.7
"1121",14,26,"female",121,55,54,4100,"1",45,85,3.5,2.5
"1122",14,26,"female",122,24,54,2127,"1",13,85,3.5,2.5
"1123",14,26,"female",123,37,50,11965,"1",27,74,3.7,3.3
"1124",14,26,"female",124,50,60,2430,"0",74,104,3.3,4.7
"1125",14,26,"female",125,42,69,4871,"0",39,167,4.6,3.9
"1126",14,26,"female",126,8,77,3663,"0",4,354,4.2,3.5
"1127",14,26,"female",127,14,7,3793,"1",8,3,3.9,4.7
"1128",14,26,"female",128,75,5,3551,"1",346,2,4.6,5
"1129",14,26,"female",129,23,31,2842,"1",12,21,4.7,1.9
"1130",14,26,"female",130,40,74,5190,"1",33,284,4.5,3.6
"1131",14,26,"female",131,79,29,2270,"1",416,19,3.6,4.3
"1132",14,26,"female",132,83,5,2134,"1",24,2,4,5
"1133",14,26,"female",133,37,54,2339,"1",27,85,3.7,2.5
"1134",14,26,"female",134,80,7,3193,"1",988,3,4.3,4.7
"1135",14,26,"female",135,61,69,12157,"1",106,167,4.3,3.9
"1136",14,26,"female",136,14,18,4037,"1",8,10,3.9,3.3
"1137",14,26,"female",137,48,5,2227,"1",53,2,4.2,5
"1138",14,26,"female",138,9,45,2067,"0",4,46,5,4.7
"1139",14,26,"female",139,22,16,6931,"0",12,9,3.8,3.9
"1140",14,26,"female",140,78,9,1929,"1",396,4,4.7,5
"1141",14,26,"female",141,57,39,2974,"0",96,31,2.7,3.8
"1142",14,26,"female",142,78,34,2309,"1",396,23,4.7,4.8
"1143",14,26,"female",143,14,5,5014,"1",8,2,3.9,5
"1144",14,26,"female",144,32,57,4936,"1",22,96,3.1,2.7
"1145",14,26,"female",145,34,82,4077,"0",23,89,4.8,4.3
"1146",14,26,"female",146,39,6,4691,"0",31,3,3.8,4
"1147",14,26,"female",147,54,52,2356,"0",85,77,2.5,4.3
"1148",14,26,"female",148,19,6,2112,"1",10,3,4.3,4
"1149",14,26,"female",149,37,51,5288,"1",27,76,3.7,3.2
"1150",14,26,"female",150,62,9,2259,"1",111,4,4.5,5
"1151",14,26,"female",151,20,24,8201,"1",11,13,3.9,3.5
"1152",14,26,"female",152,4,63,11553,"0",2,113,4,3.3
"1153",14,26,"female",153,19,79,6239,"0",10,416,4.3,3.6
"1154",14,26,"female",154,49,80,5225,"0",57,988,4.5,4.3
"1155",14,26,"female",155,80,45,8310,"0",988,46,4.3,4.7
"1156",14,26,"female",156,27,1,3700,"0",18,1,2.8,5
"1157",14,26,"female",157,7,74,4335,"0",3,284,4.7,3.6
"1158",14,26,"female",158,77,8,5528,"1",354,4,3.5,4.2
"1159",14,26,"female",159,45,58,3907,"0",46,99,4.7,4.6
"1160",14,26,"female",160,58,74,4374,"1",99,284,4.6,3.6
"1161",14,26,"female",161,19,76,3655,"0",10,348,4.3,4.2
"1162",14,26,"female",162,3,48,4823,"0",2,53,2.5,4.2
"1163",14,26,"female",163,74,58,3428,"0",284,99,3.6,4.6
"1164",14,26,"female",164,25,59,4423,"1",13,96,4.1,3.3
"1165",14,26,"female",165,63,62,2307,"0",113,111,3.3,4.5
"1166",14,26,"female",166,50,11,15187,"0",74,6,3.3,3.7
"1167",14,26,"female",167,11,13,4704,"1",6,7,3.7,3.3
"1168",14,26,"female",168,18,4,5684,"0",10,2,3.3,4
"1169",14,26,"female",169,79,53,3328,"1",416,84,3.6,4.5
"1170",14,26,"female",170,7,18,2896,"1",3,10,4.7,3.3
"1171",14,26,"female",171,71,79,3223,"1",200,416,4.1,3.6
"1172",14,26,"female",172,5,20,4992,"0",2,11,5,3.9
"1173",14,26,"female",173,7,75,3232,"0",3,346,4.7,4.6
"1174",14,26,"female",174,82,81,5404,"1",89,22,4.3,4.6
"1175",14,26,"female",175,17,78,2880,"0",9,396,4.9,4.7
"1176",14,26,"female",176,4,47,4516,"0",2,49,4,3.9
"1177",14,26,"female",177,36,46,9811,"1",24,47,4.6,3.9
"1178",14,26,"female",178,14,54,3408,"1",8,85,3.9,2.5
"1179",14,26,"female",179,37,20,7600,"0",27,11,3.7,3.9
"1180",14,26,"female",180,51,47,4303,"0",76,49,3.2,3.9
"1181",14,26,"female",181,71,81,2403,"1",200,22,4.1,4.6
"1182",14,26,"female",182,45,62,3110,"0",46,111,4.7,4.5
"1183",14,26,"female",183,15,9,2376,"0",8,4,3.5,5
"1184",14,26,"female",184,60,43,4774,"1",104,44,4.7,4.6
"1185",14,26,"female",185,45,50,2679,"1",46,74,4.7,3.3
"1186",14,26,"female",186,60,67,3683,"0",104,148,4.7,4.8
"1187",14,26,"female",187,50,70,3705,"0",74,172,3.3,4.1
"1188",14,26,"female",188,14,4,2452,"1",8,2,3.9,4
"1189",14,26,"female",189,66,17,8002,"0",134,9,3.3,4.9
"1190",14,26,"female",190,14,10,1921,"1",8,5,3.9,3
"1191",14,26,"female",191,53,45,4484,"1",84,46,4.5,4.7
"1192",14,26,"female",192,39,81,6430,"0",31,22,3.8,4.6
"1193",14,26,"female",193,11,59,7872,"0",6,96,3.7,3.3
"1194",14,26,"female",194,6,78,2245,"0",3,396,4,4.7
"1195",14,26,"female",195,55,11,2920,"1",45,6,3.5,3.7
"1196",14,26,"female",196,66,15,4740,"1",134,8,3.3,3.5
"1197",14,26,"female",197,59,34,2529,"0",96,23,3.3,4.8
"1198",14,26,"female",198,21,37,6046,"1",11,27,4.6,3.7
"1199",14,26,"female",199,78,62,1954,"1",396,111,4.7,4.5
"1200",14,26,"female",200,14,82,2797,"0",8,89,3.9,4.3
"1201",15,22,"female",1,82,7,6670,"1",89,3,4.3,4.7
"1202",15,22,"female",2,53,61,3489,"1",84,106,4.5,4.3
"1203",15,22,"female",3,51,42,2849,"0",76,39,3.2,4.6
"1204",15,22,"female",4,22,19,4768,"0",12,10,3.8,4.3
"1205",15,22,"female",5,21,48,3218,"0",11,53,4.6,4.2
"1206",15,22,"female",6,49,76,6793,"0",57,348,4.5,4.2
"1207",15,22,"female",7,41,1,2564,"1",35,1,3.6,5
"1208",15,22,"female",8,27,11,3096,"0",18,6,2.8,3.7
"1209",15,22,"female",9,38,73,3415,"0",59,272,4,3.8
"1210",15,22,"female",10,3,1,3511,"0",2,1,2.5,5
"1211",15,22,"female",11,36,13,2761,"1",24,7,4.6,3.3
"1212",15,22,"female",12,7,3,1732,"1",3,2,4.7,2.5
"1213",15,22,"female",13,28,20,2289,"0",18,11,3.2,3.9
"1214",15,22,"female",14,11,24,6127,"0",6,13,3.7,3.5
"1215",15,22,"female",15,40,17,3587,"1",33,9,4.5,4.9
"1216",15,22,"female",16,53,77,1670,"1",84,354,4.5,3.5
"1217",15,22,"female",17,24,13,1781,"1",13,7,3.5,3.3
"1218",15,22,"female",18,12,77,2797,"1",6,354,4.2,3.5
"1219",15,22,"female",19,20,19,1537,"0",11,10,3.9,4.3
"1220",15,22,"female",20,79,43,1765,"0",416,44,3.6,4.6
"1221",15,22,"female",21,65,35,2248,"0",126,24,3.2,4.3
"1222",15,22,"female",22,72,29,2237,"0",38,19,3.3,4.3
"1223",15,22,"female",23,8,66,2336,"1",4,134,4.2,3.3
"1224",15,22,"female",24,42,56,1686,"1",39,94,4.6,3.9
"1225",15,22,"female",25,48,45,1912,"0",53,46,4.2,4.7
"1226",15,22,"female",26,27,19,1624,"0",18,10,2.8,4.3
"1227",15,22,"female",27,76,81,8479,"0",348,22,4.2,4.6
"1228",15,22,"female",28,48,63,1280,"1",53,113,4.2,3.3
"1229",15,22,"female",29,1,17,1984,"0",1,9,5,4.9
"1230",15,22,"female",30,39,56,3872,"0",31,94,3.8,3.9
"1231",15,22,"female",31,27,6,2126,"0",18,3,2.8,4
"1232",15,22,"female",32,3,31,1513,"1",2,21,2.5,1.9
"1233",15,22,"female",33,28,15,5528,"1",18,8,3.2,3.5
"1234",15,22,"female",34,71,21,3059,"0",200,11,4.1,4.6
"1235",15,22,"female",35,58,17,4429,"1",99,9,4.6,4.9
"1236",15,22,"female",36,80,43,3769,"1",988,44,4.3,4.6
"1237",15,22,"female",37,65,58,2034,"0",126,99,3.2,4.6
"1238",15,22,"female",38,3,69,1660,"0",2,167,2.5,3.9
"1239",15,22,"female",39,55,29,1721,"0",45,19,3.5,4.3
"1240",15,22,"female",40,54,26,1795,"0",85,17,2.5,3.1
"1241",15,22,"female",41,44,7,4797,"0",45,3,4,4.7
"1242",15,22,"female",42,52,17,3445,"0",77,9,4.3,4.9
"1243",15,22,"female",43,77,19,1725,"0",354,10,3.5,4.3
"1244",15,22,"female",44,25,64,1527,"1",13,120,4.1,3.4
"1245",15,22,"female",45,39,43,1641,"0",31,44,3.8,4.6
"1246",15,22,"female",46,67,75,9458,"1",148,346,4.8,4.6
"1247",15,22,"female",47,53,57,1927,"1",84,96,4.5,2.7
"1248",15,22,"female",48,57,1,1721,"1",96,1,2.7,5
"1249",15,22,"female",49,78,17,3331,"1",396,9,4.7,4.9
"1250",15,22,"female",50,35,48,4931,"1",24,53,4.3,4.2
"1251",15,22,"female",51,73,44,2645,"1",272,45,3.8,4
"1252",15,22,"female",52,31,9,1577,"0",21,4,1.9,5
"1253",15,22,"female",53,29,83,2885,"1",19,24,4.3,4
"1254",15,22,"female",54,81,12,1868,"1",22,6,4.6,4.2
"1255",15,22,"female",55,50,8,2516,"0",74,4,3.3,4.2
"1256",15,22,"female",56,46,5,2671,"0",47,2,3.9,5
"1257",15,22,"female",57,22,28,2361,"1",12,18,3.8,3.2
"1258",15,22,"female",58,78,1,1908,"1",396,1,4.7,5
"1259",15,22,"female",59,27,20,2852,"0",18,11,2.8,3.9
"1260",15,22,"female",60,7,47,2578,"1",3,49,4.7,3.9
"1261",15,22,"female",61,80,40,2153,"1",988,33,4.3,4.5
"1262",15,22,"female",62,13,31,1849,"1",7,21,3.3,1.9
"1263",15,22,"female",63,21,27,1198,"1",11,18,4.6,2.8
"1264",15,22,"female",64,27,16,1823,"0",18,9,2.8,3.9
"1265",15,22,"female",65,82,34,2654,"0",89,23,4.3,4.8
"1266",15,22,"female",66,7,18,1060,"1",3,10,4.7,3.3
"1267",15,22,"female",67,7,83,2648,"1",3,24,4.7,4
"1268",15,22,"female",68,23,67,1390,"0",12,148,4.7,4.8
"1269",15,22,"female",69,14,76,1493,"0",8,348,3.9,4.2
"1270",15,22,"female",70,16,8,1537,"0",9,4,3.9,4.2
"1271",15,22,"female",71,38,43,1702,"0",59,44,4,4.6
"1272",15,22,"female",72,79,17,3133,"0",416,9,3.6,4.9
"1273",15,22,"female",73,14,68,2564,"1",8,166,3.9,3.1
"1274",15,22,"female",74,53,36,2760,"1",84,24,4.5,4.6
"1275",15,22,"female",75,51,22,3236,"0",76,12,3.2,3.8
"1276",15,22,"female",76,61,9,1393,"0",106,4,4.3,5
"1277",15,22,"female",77,1,18,3672,"0",1,10,5,3.3
"1278",15,22,"female",78,30,8,3901,"0",20,4,4,4.2
"1279",15,22,"female",79,52,26,1824,"1",77,17,4.3,3.1
"1280",15,22,"female",80,75,77,1008,"1",346,354,4.6,3.5
"1281",15,22,"female",81,81,66,1065,"1",22,134,4.6,3.3
"1282",15,22,"female",82,2,31,1183,"1",2,21,3,1.9
"1283",15,22,"female",83,27,49,1230,"0",18,57,2.8,4.5
"1284",15,22,"female",84,67,75,2164,"1",148,346,4.8,4.6
"1285",15,22,"female",85,69,53,1030,"0",167,84,3.9,4.5
"1286",15,22,"female",86,78,1,1492,"1",396,1,4.7,5
"1287",15,22,"female",87,77,7,2273,"0",354,3,3.5,4.7
"1288",15,22,"female",88,2,54,5593,"0",2,85,3,2.5
"1289",15,22,"female",89,65,44,3842,"0",126,45,3.2,4
"1290",15,22,"female",90,22,7,1672,"0",12,3,3.8,4.7
"1291",15,22,"female",91,64,40,1031,"0",120,33,3.4,4.5
"1292",15,22,"female",92,72,36,901,"0",38,24,3.3,4.6
"1293",15,22,"female",93,51,68,2425,"0",76,166,3.2,3.1
"1294",15,22,"female",94,17,45,2657,"1",9,46,4.9,4.7
"1295",15,22,"female",95,11,41,1768,"0",6,35,3.7,3.6
"1296",15,22,"female",96,3,1,4317,"0",2,1,2.5,5
"1297",15,22,"female",97,30,19,3139,"0",20,10,4,4.3
"1298",15,22,"female",98,41,22,2957,"0",35,12,3.6,3.8
"1299",15,22,"female",99,43,73,1794,"1",44,272,4.6,3.8
"1300",15,22,"female",100,68,67,3097,"0",166,148,3.1,4.8
"1301",15,22,"female",101,3,31,1432,"1",2,21,2.5,1.9
"1302",15,22,"female",102,75,9,1223,"0",346,4,4.6,5
"1303",15,22,"female",103,10,57,4446,"0",5,96,3,2.7
"1304",15,22,"female",104,79,35,2334,"0",416,24,3.6,4.3
"1305",15,22,"female",105,28,31,1524,"1",18,21,3.2,1.9
"1306",15,22,"female",106,71,36,1878,"0",200,24,4.1,4.6
"1307",15,22,"female",107,14,1,1744,"1",8,1,3.9,5
"1308",15,22,"female",108,34,9,1664,"0",23,4,4.8,5
"1309",15,22,"female",109,39,72,1487,"1",31,38,3.8,3.3
"1310",15,22,"female",110,6,22,1609,"1",3,12,4,3.8
"1311",15,22,"female",111,12,15,1293,"1",6,8,4.2,3.5
"1312",15,22,"female",112,22,65,1234,"1",12,126,3.8,3.2
"1313",15,22,"female",113,61,73,1448,"1",106,272,4.3,3.8
"1314",15,22,"female",114,24,1,1484,"1",13,1,3.5,5
"1315",15,22,"female",115,21,35,1894,"1",11,24,4.6,4.3
"1316",15,22,"female",116,27,4,1683,"0",18,2,2.8,4
"1317",15,22,"female",117,83,57,1909,"1",24,96,4,2.7
"1318",15,22,"female",118,44,17,1301,"0",45,9,4,4.9
"1319",15,22,"female",119,10,36,1209,"0",5,24,3,4.6
"1320",15,22,"female",120,61,40,1613,"0",106,33,4.3,4.5
"1321",15,22,"female",121,45,58,2097,"0",46,99,4.7,4.6
"1322",15,22,"female",122,2,1,1943,"0",2,1,3,5
"1323",15,22,"female",123,14,59,2223,"1",8,96,3.9,3.3
"1324",15,22,"female",124,47,34,1087,"0",49,23,3.9,4.8
"1325",15,22,"female",125,42,56,1016,"1",39,94,4.6,3.9
"1326",15,22,"female",126,1,2,1444,"1",1,2,5,3
"1327",15,22,"female",127,5,49,1956,"0",2,57,5,4.5
"1328",15,22,"female",128,1,10,1983,"1",1,5,5,3
"1329",15,22,"female",129,17,42,1167,"1",9,39,4.9,4.6
"1330",15,22,"female",130,47,83,2136,"0",49,24,3.9,4
"1331",15,22,"female",131,31,2,2501,"0",21,2,1.9,3
"1332",15,22,"female",132,41,6,2702,"0",35,3,3.6,4
"1333",15,22,"female",133,46,36,1311,"0",47,24,3.9,4.6
"1334",15,22,"female",134,77,48,1430,"0",354,53,3.5,4.2
"1335",15,22,"female",135,42,61,1333,"1",39,106,4.6,4.3
"1336",15,22,"female",136,38,17,1249,"0",59,9,4,4.9
"1337",15,22,"female",137,14,39,3885,"1",8,31,3.9,3.8
"1338",15,22,"female",138,38,1,1918,"1",59,1,4,5
"1339",15,22,"female",139,76,7,2752,"0",348,3,4.2,4.7
"1340",15,22,"female",140,28,31,1193,"1",18,21,3.2,1.9
"1341",15,22,"female",141,75,45,1896,"1",346,46,4.6,4.7
"1342",15,22,"female",142,15,57,981,"1",8,96,3.5,2.7
"1343",15,22,"female",143,32,15,1336,"0",22,8,3.1,3.5
"1344",15,22,"female",144,80,81,2532,"0",988,22,4.3,4.6
"1345",15,22,"female",145,45,66,1027,"1",46,134,4.7,3.3
"1346",15,22,"female",146,37,56,1585,"0",27,94,3.7,3.9
"1347",15,22,"female",147,22,6,1727,"0",12,3,3.8,4
"1348",15,22,"female",148,79,52,1081,"0",416,77,3.6,4.3
"1349",15,22,"female",149,75,1,1746,"1",346,1,4.6,5
"1350",15,22,"female",150,49,57,994,"1",57,96,4.5,2.7
"1351",15,22,"female",151,2,27,2936,"0",2,18,3,2.8
"1352",15,22,"female",152,2,54,2823,"1",2,85,3,2.5
"1353",15,22,"female",153,63,44,1776,"0",113,45,3.3,4
"1354",15,22,"female",154,41,61,1173,"0",35,106,3.6,4.3
"1355",15,22,"female",155,71,8,1873,"1",200,4,4.1,4.2
"1356",15,22,"female",156,24,23,1128,"0",13,12,3.5,4.7
"1357",15,22,"female",157,77,14,1466,"0",354,8,3.5,3.9
"1358",15,22,"female",158,10,54,1489,"1",5,85,3,2.5
"1359",15,22,"female",159,54,51,1101,"0",85,76,2.5,3.2
"1360",15,22,"female",160,15,63,4425,"1",8,113,3.5,3.3
"1361",15,22,"female",161,19,41,1189,"1",10,35,4.3,3.6
"1362",15,22,"female",162,32,24,1139,"0",22,13,3.1,3.5
"1363",15,22,"female",163,47,22,1575,"1",49,12,3.9,3.8
"1364",15,22,"female",164,18,16,1220,"0",10,9,3.3,3.9
"1365",15,22,"female",165,46,35,1079,"0",47,24,3.9,4.3
"1366",15,22,"female",166,76,40,1552,"0",348,33,4.2,4.5
"1367",15,22,"female",167,15,68,1576,"1",8,166,3.5,3.1
"1368",15,22,"female",168,31,14,852,"0",21,8,1.9,3.9
"1369",15,22,"female",169,51,17,847,"0",76,9,3.2,4.9
"1370",15,22,"female",170,34,78,1623,"1",23,396,4.8,4.7
"1371",15,22,"female",171,59,75,846,"0",96,346,3.3,4.6
"1372",15,22,"female",172,7,29,2887,"1",3,19,4.7,4.3
"1373",15,22,"female",173,32,19,846,"0",22,10,3.1,4.3
"1374",15,22,"female",174,41,20,2054,"0",35,11,3.6,3.9
"1375",15,22,"female",175,43,46,1028,"1",44,47,4.6,3.9
"1376",15,22,"female",176,60,62,1938,"1",104,111,4.7,4.5
"1377",15,22,"female",177,12,62,1239,"0",6,111,4.2,4.5
"1378",15,22,"female",178,4,31,1280,"1",2,21,4,1.9
"1379",15,22,"female",179,76,58,1650,"0",348,99,4.2,4.6
"1380",15,22,"female",180,72,9,1086,"0",38,4,3.3,5
"1381",15,22,"female",181,3,31,1431,"1",2,21,2.5,1.9
"1382",15,22,"female",182,13,26,1462,"1",7,17,3.3,3.1
"1383",15,22,"female",183,71,62,1437,"0",200,111,4.1,4.5
"1384",15,22,"female",184,77,14,4047,"1",354,8,3.5,3.9
"1385",15,22,"female",185,32,13,1360,"0",22,7,3.1,3.3
"1386",15,22,"female",186,41,68,1505,"1",35,166,3.6,3.1
"1387",15,22,"female",187,74,71,1424,"0",284,200,3.6,4.1
"1388",15,22,"female",188,54,7,1103,"0",85,3,2.5,4.7
"1389",15,22,"female",189,13,32,1965,"1",7,22,3.3,3.1
"1390",15,22,"female",190,65,52,1016,"0",126,77,3.2,4.3
"1391",15,22,"female",191,69,38,1492,"0",167,59,3.9,4
"1392",15,22,"female",192,49,57,960,"1",57,96,4.5,2.7
"1393",15,22,"female",193,13,4,1408,"0",7,2,3.3,4
"1394",15,22,"female",194,69,36,1161,"0",167,24,3.9,4.6
"1395",15,22,"female",195,29,58,1330,"0",19,99,4.3,4.6
"1396",15,22,"female",196,69,26,1070,"1",167,17,3.9,3.1
"1397",15,22,"female",197,66,69,949,"0",134,167,3.3,3.9
"1398",15,22,"female",198,68,19,1011,"0",166,10,3.1,4.3
"1399",15,22,"female",199,35,44,1566,"1",24,45,4.3,4
"1400",15,22,"female",200,31,9,1064,"0",21,4,1.9,5
"1401",16,25,"female",1,19,71,5022,"0",10,200,4.3,4.1
"1402",16,25,"female",2,5,23,5075,"0",2,12,5,4.7
"1403",16,25,"female",3,21,83,6723,"1",11,24,4.6,4
"1404",16,25,"female",4,30,12,5777,"0",20,6,4,4.2
"1405",16,25,"female",5,19,26,4880,"0",10,17,4.3,3.1
"1406",16,25,"female",6,46,9,5479,"1",47,4,3.9,5
"1407",16,25,"female",7,40,46,3912,"0",33,47,4.5,3.9
"1408",16,25,"female",8,48,77,7662,"0",53,354,4.2,3.5
"1409",16,25,"female",9,12,73,2776,"0",6,272,4.2,3.8
"1410",16,25,"female",10,50,65,5126,"0",74,126,3.3,3.2
"1411",16,25,"female",11,32,24,3921,"1",22,13,3.1,3.5
"1412",16,25,"female",12,46,36,5526,"0",47,24,3.9,4.6
"1413",16,25,"female",13,17,2,3409,"1",9,2,4.9,3
"1414",16,25,"female",14,77,81,2177,"1",354,22,3.5,4.6
"1415",16,25,"female",15,22,7,9063,"0",12,3,3.8,4.7
"1416",16,25,"female",16,60,17,2190,"1",104,9,4.7,4.9
"1417",16,25,"female",17,9,18,3366,"1",4,10,5,3.3
"1418",16,25,"female",18,38,19,6446,"1",59,10,4,4.3
"1419",16,25,"female",19,68,57,5235,"1",166,96,3.1,2.7
"1420",16,25,"female",20,62,5,2691,"0",111,2,4.5,5
"1421",16,25,"female",21,2,1,5154,"1",2,1,3,5
"1422",16,25,"female",22,19,56,2594,"0",10,94,4.3,3.9
"1423",16,25,"female",23,75,9,4317,"0",346,4,4.6,5
"1424",16,25,"female",24,68,51,1556,"1",166,76,3.1,3.2
"1425",16,25,"female",25,13,54,2702,"1",7,85,3.3,2.5
"1426",16,25,"female",26,51,41,3582,"0",76,35,3.2,3.6
"1427",16,25,"female",27,54,56,3089,"0",85,94,2.5,3.9
"1428",16,25,"female",28,72,38,1968,"0",38,59,3.3,4
"1429",16,25,"female",29,35,18,2509,"1",24,10,4.3,3.3
"1430",16,25,"female",30,56,12,4214,"0",94,6,3.9,4.2
"1431",16,25,"female",31,54,47,3463,"0",85,49,2.5,3.9
"1432",16,25,"female",32,61,53,5026,"1",106,84,4.3,4.5
"1433",16,25,"female",33,28,3,1623,"1",18,2,3.2,2.5
"1434",16,25,"female",34,65,7,2590,"0",126,3,3.2,4.7
"1435",16,25,"female",35,40,61,2439,"0",33,106,4.5,4.3
"1436",16,25,"female",36,6,16,2738,"0",3,9,4,3.9
"1437",16,25,"female",37,26,42,2377,"0",17,39,3.1,4.6
"1438",16,25,"female",38,11,64,3991,"0",6,120,3.7,3.4
"1439",16,25,"female",39,71,42,3933,"1",200,39,4.1,4.6
"1440",16,25,"female",40,29,9,1558,"1",19,4,4.3,5
"1441",16,25,"female",41,35,1,1807,"1",24,1,4.3,5
"1442",16,25,"female",42,5,77,2330,"0",2,354,5,3.5
"1443",16,25,"female",43,37,64,1680,"0",27,120,3.7,3.4
"1444",16,25,"female",44,63,30,4497,"1",113,20,3.3,4
"1445",16,25,"female",45,38,74,2093,"1",59,284,4,3.6
"1446",16,25,"female",46,16,8,2994,"1",9,4,3.9,4.2
"1447",16,25,"female",47,73,9,1487,"1",272,4,3.8,5
"1448",16,25,"female",48,63,23,2536,"0",113,12,3.3,4.7
"1449",16,25,"female",49,40,65,3143,"1",33,126,4.5,3.2
"1450",16,25,"female",50,10,6,5056,"0",5,3,3,4
"1451",16,25,"female",51,51,35,1742,"0",76,24,3.2,4.3
"1452",16,25,"female",52,79,81,2509,"0",416,22,3.6,4.6
"1453",16,25,"female",53,76,21,2934,"1",348,11,4.2,4.6
"1454",16,25,"female",54,11,13,3397,"1",6,7,3.7,3.3
"1455",16,25,"female",55,36,54,1522,"0",24,85,4.6,2.5
"1456",16,25,"female",56,52,36,3268,"0",77,24,4.3,4.6
"1457",16,25,"female",57,25,44,5958,"1",13,45,4.1,4
"1458",16,25,"female",58,29,31,2103,"1",19,21,4.3,1.9
"1459",16,25,"female",59,51,41,1840,"0",76,35,3.2,3.6
"1460",16,25,"female",60,69,6,3778,"1",167,3,3.9,4
"1461",16,25,"female",61,40,34,2268,"1",33,23,4.5,4.8
"1462",16,25,"female",62,67,17,1588,"1",148,9,4.8,4.9
"1463",16,25,"female",63,43,44,2100,"1",44,45,4.6,4
"1464",16,25,"female",64,79,28,1897,"1",416,18,3.6,3.2
"1465",16,25,"female",65,80,17,1286,"1",988,9,4.3,4.9
"1466",16,25,"female",66,78,67,1367,"1",396,148,4.7,4.8
"1467",16,25,"female",67,5,19,2073,"0",2,10,5,4.3
"1468",16,25,"female",68,50,19,1593,"0",74,10,3.3,4.3
"1469",16,25,"female",69,15,8,1992,"0",8,4,3.5,4.2
"1470",16,25,"female",70,70,49,2040,"0",172,57,4.1,4.5
"1471",16,25,"female",71,66,37,4131,"1",134,27,3.3,3.7
"1472",16,25,"female",72,17,31,2068,"1",9,21,4.9,1.9
"1473",16,25,"female",73,82,65,1940,"1",89,126,4.3,3.2
"1474",16,25,"female",74,24,1,2057,"1",13,1,3.5,5
"1475",16,25,"female",75,34,65,2822,"1",23,126,4.8,3.2
"1476",16,25,"female",76,46,74,3248,"0",47,284,3.9,3.6
"1477",16,25,"female",77,3,1,2015,"0",2,1,2.5,5
"1478",16,25,"female",78,5,13,1972,"1",2,7,5,3.3
"1479",16,25,"female",79,36,47,3346,"1",24,49,4.6,3.9
"1480",16,25,"female",80,60,61,1811,"1",104,106,4.7,4.3
"1481",16,25,"female",81,68,56,1232,"0",166,94,3.1,3.9
"1482",16,25,"female",82,50,65,1190,"1",74,126,3.3,3.2
"1483",16,25,"female",83,14,27,1445,"1",8,18,3.9,2.8
"1484",16,25,"female",84,18,57,2599,"1",10,96,3.3,2.7
"1485",16,25,"female",85,41,77,2194,"1",35,354,3.6,3.5
"1486",16,25,"female",86,13,49,1005,"0",7,57,3.3,4.5
"1487",16,25,"female",87,6,18,2086,"0",3,10,4,3.3
"1488",16,25,"female",88,10,7,3289,"0",5,3,3,4.7
"1489",16,25,"female",89,78,9,1712,"1",396,4,4.7,5
"1490",16,25,"female",90,62,21,3448,"1",111,11,4.5,4.6
"1491",16,25,"female",91,68,20,3744,"1",166,11,3.1,3.9
"1492",16,25,"female",92,51,43,3251,"0",76,44,3.2,4.6
"1493",16,25,"female",93,48,3,1522,"1",53,2,4.2,2.5
"1494",16,25,"female",94,73,53,1172,"0",272,84,3.8,4.5
"1495",16,25,"female",95,34,48,1376,"0",23,53,4.8,4.2
"1496",16,25,"female",96,19,77,1684,"1",10,354,4.3,3.5
"1497",16,25,"female",97,53,61,1110,"1",84,106,4.5,4.3
"1498",16,25,"female",98,3,1,3284,"0",2,1,2.5,5
"1499",16,25,"female",99,69,40,1785,"0",167,33,3.9,4.5
"1500",16,25,"female",100,16,28,1521,"1",9,18,3.9,3.2
"1501",16,25,"female",101,26,15,1297,"0",17,8,3.1,3.5
"1502",16,25,"female",102,11,57,2357,"1",6,96,3.7,2.7
"1503",16,25,"female",103,47,29,3217,"1",49,19,3.9,4.3
"1504",16,25,"female",104,38,34,1656,"1",59,23,4,4.8
"1505",16,25,"female",105,30,69,1845,"0",20,167,4,3.9
"1506",16,25,"female",106,50,15,1879,"1",74,8,3.3,3.5
"1507",16,25,"female",107,11,8,913,"0",6,4,3.7,4.2
"1508",16,25,"female",108,49,1,2727,"1",57,1,4.5,5
"1509",16,25,"female",109,28,9,3390,"0",18,4,3.2,5
"1510",16,25,"female",110,33,4,3096,"1",22,2,3.9,4
"1511",16,25,"female",111,82,49,1895,"0",89,57,4.3,4.5
"1512",16,25,"female",112,33,60,1732,"0",22,104,3.9,4.7
"1513",16,25,"female",113,46,68,1873,"1",47,166,3.9,3.1
"1514",16,25,"female",114,60,75,1177,"0",104,346,4.7,4.6
"1515",16,25,"female",115,63,12,1557,"0",113,6,3.3,4.2
"1516",16,25,"female",116,48,34,2143,"0",53,23,4.2,4.8
"1517",16,25,"female",117,11,54,1135,"1",6,85,3.7,2.5
"1518",16,25,"female",118,68,12,1363,"1",166,6,3.1,4.2
"1519",16,25,"female",119,30,69,2404,"0",20,167,4,3.9
"1520",16,25,"female",120,41,7,1975,"1",35,3,3.6,4.7
"1521",16,25,"female",121,52,81,981,"0",77,22,4.3,4.6
"1522",16,25,"female",122,59,46,2199,"0",96,47,3.3,3.9
"1523",16,25,"female",123,33,50,3922,"0",22,74,3.9,3.3
"1524",16,25,"female",124,31,8,888,"0",21,4,1.9,4.2
"1525",16,25,"female",125,51,47,3177,"0",76,49,3.2,3.9
"1526",16,25,"female",126,20,68,1512,"0",11,166,3.9,3.1
"1527",16,25,"female",127,65,17,2647,"0",126,9,3.2,4.9
"1528",16,25,"female",128,73,58,1485,"0",272,99,3.8,4.6
"1529",16,25,"female",129,66,15,2423,"1",134,8,3.3,3.5
"1530",16,25,"female",130,36,62,1200,"0",24,111,4.6,4.5
"1531",16,25,"female",131,37,30,2705,"1",27,20,3.7,4
"1532",16,25,"female",132,62,45,1202,"0",111,46,4.5,4.7
"1533",16,25,"female",133,10,48,1955,"0",5,53,3,4.2
"1534",16,25,"female",134,8,74,1502,"0",4,284,4.2,3.6
"1535",16,25,"female",135,29,66,1885,"0",19,134,4.3,3.3
"1536",16,25,"female",136,47,64,2007,"1",49,120,3.9,3.4
"1537",16,25,"female",137,33,17,1533,"1",22,9,3.9,4.9
"1538",16,25,"female",138,74,9,1953,"1",284,4,3.6,5
"1539",16,25,"female",139,12,37,1465,"1",6,27,4.2,3.7
"1540",16,25,"female",140,64,20,4224,"1",120,11,3.4,3.9
"1541",16,25,"female",141,78,1,1204,"1",396,1,4.7,5
"1542",16,25,"female",142,5,42,1156,"0",2,39,5,4.6
"1543",16,25,"female",143,46,7,1517,"0",47,3,3.9,4.7
"1544",16,25,"female",144,19,7,1407,"0",10,3,4.3,4.7
"1545",16,25,"female",145,42,62,1576,"0",39,111,4.6,4.5
"1546",16,25,"female",146,15,65,2661,"1",8,126,3.5,3.2
"1547",16,25,"female",147,50,4,1278,"1",74,2,3.3,4
"1548",16,25,"female",148,76,19,1743,"1",348,10,4.2,4.3
"1549",16,25,"female",149,45,57,1039,"1",46,96,4.7,2.7
"1550",16,25,"female",150,16,79,1696,"0",9,416,3.9,3.6
"1551",16,25,"female",151,8,74,1476,"0",4,284,4.2,3.6
"1552",16,25,"female",152,79,16,1246,"0",416,9,3.6,3.9
"1553",16,25,"female",153,32,14,2311,"1",22,8,3.1,3.9
"1554",16,25,"female",154,6,28,3848,"1",3,18,4,3.2
"1555",16,25,"female",155,62,77,1728,"1",111,354,4.5,3.5
"1556",16,25,"female",156,10,8,2813,"0",5,4,3,4.2
"1557",16,25,"female",157,68,47,3700,"0",166,49,3.1,3.9
"1558",16,25,"female",158,49,77,2143,"1",57,354,4.5,3.5
"1559",16,25,"female",159,35,78,1471,"0",24,396,4.3,4.7
"1560",16,25,"female",160,35,34,2022,"0",24,23,4.3,4.8
"1561",16,25,"female",161,74,16,2366,"0",284,9,3.6,3.9
"1562",16,25,"female",162,13,7,2345,"0",7,3,3.3,4.7
"1563",16,25,"female",163,11,70,3233,"0",6,172,3.7,4.1
"1564",16,25,"female",164,59,52,1246,"0",96,77,3.3,4.3
"1565",16,25,"female",165,41,65,2151,"0",35,126,3.6,3.2
"1566",16,25,"female",166,12,37,1735,"1",6,27,4.2,3.7
"1567",16,25,"female",167,37,63,1700,"0",27,113,3.7,3.3
"1568",16,25,"female",168,83,55,2200,"0",24,45,4,3.5
"1569",16,25,"female",169,6,22,1955,"0",3,12,4,3.8
"1570",16,25,"female",170,40,73,2110,"1",33,272,4.5,3.8
"1571",16,25,"female",171,10,57,2742,"1",5,96,3,2.7
"1572",16,25,"female",172,83,81,5167,"0",24,22,4,4.6
"1573",16,25,"female",173,80,40,2114,"1",988,33,4.3,4.5
"1574",16,25,"female",174,2,57,1725,"1",2,96,3,2.7
"1575",16,25,"female",175,76,7,2007,"1",348,3,4.2,4.7
"1576",16,25,"female",176,29,63,1914,"1",19,113,4.3,3.3
"1577",16,25,"female",177,19,30,1657,"1",10,20,4.3,4
"1578",16,25,"female",178,83,20,1382,"1",24,11,4,3.9
"1579",16,25,"female",179,18,57,1517,"1",10,96,3.3,2.7
"1580",16,25,"female",180,37,7,1807,"1",27,3,3.7,4.7
"1581",16,25,"female",181,51,4,1561,"1",76,2,3.2,4
"1582",16,25,"female",182,30,17,1411,"0",20,9,4,4.9
"1583",16,25,"female",183,27,21,1438,"0",18,11,2.8,4.6
"1584",16,25,"female",184,41,34,1904,"0",35,23,3.6,4.8
"1585",16,25,"female",185,75,5,1167,"1",346,2,4.6,5
"1586",16,25,"female",186,49,34,1529,"1",57,23,4.5,4.8
"1587",16,25,"female",187,28,4,1469,"1",18,2,3.2,4
"1588",16,25,"female",188,66,37,1604,"0",134,27,3.3,3.7
"1589",16,25,"female",189,34,42,2854,"1",23,39,4.8,4.6
"1590",16,25,"female",190,63,57,1253,"1",113,96,3.3,2.7
"1591",16,25,"female",191,43,67,929,"0",44,148,4.6,4.8
"1592",16,25,"female",192,36,28,1033,"1",24,18,4.6,3.2
"1593",16,25,"female",193,2,55,840,"0",2,45,3,3.5
"1594",16,25,"female",194,29,64,1856,"1",19,120,4.3,3.4
"1595",16,25,"female",195,17,35,1573,"0",9,24,4.9,4.3
"1596",16,25,"female",196,11,46,1282,"0",6,47,3.7,3.9
"1597",16,25,"female",197,16,50,1331,"0",9,74,3.9,3.3
"1598",16,25,"female",198,75,7,1375,"1",346,3,4.6,4.7
"1599",16,25,"female",199,24,72,2771,"1",13,38,3.5,3.3
"1600",16,25,"female",200,20,79,1138,"0",11,416,3.9,3.6
"1601",17,27,"female",1,70,8,52317,"1",172,4,4.1,4.2
"1602",17,27,"female",2,23,82,18542,"1",12,89,4.7,4.3
"1603",17,27,"female",3,50,75,35567,"0",74,346,3.3,4.6
"1604",17,27,"female",4,26,6,10530,"0",17,3,3.1,4
"1605",17,27,"female",5,76,42,5425,"1",348,39,4.2,4.6
"1606",17,27,"female",6,53,81,2343,"1",84,22,4.5,4.6
"1607",17,27,"female",7,24,30,4080,"0",13,20,3.5,4
"1608",17,27,"female",8,83,8,2806,"1",24,4,4,4.2
"1609",17,27,"female",9,76,19,3033,"1",348,10,4.2,4.3
"1610",17,27,"female",10,80,58,6957,"1",988,99,4.3,4.6
"1611",17,27,"female",11,23,82,11913,"0",12,89,4.7,4.3
"1612",17,27,"female",12,8,54,3008,"1",4,85,4.2,2.5
"1613",17,27,"female",13,10,9,3583,"0",5,4,3,5
"1614",17,27,"female",14,5,30,2481,"1",2,20,5,4
"1615",17,27,"female",15,41,5,2933,"0",35,2,3.6,5
"1616",17,27,"female",16,48,81,3204,"0",53,22,4.2,4.6
"1617",17,27,"female",17,36,14,3432,"1",24,8,4.6,3.9
"1618",17,27,"female",18,17,62,5725,"1",9,111,4.9,4.5
"1619",17,27,"female",19,50,40,1857,"0",74,33,3.3,4.5
"1620",17,27,"female",20,39,20,2454,"1",31,11,3.8,3.9
"1621",17,27,"female",21,17,70,2676,"1",9,172,4.9,4.1
"1622",17,27,"female",22,11,59,2848,"1",6,96,3.7,3.3
"1623",17,27,"female",23,69,5,1662,"0",167,2,3.9,5
"1624",17,27,"female",24,8,25,2894,"1",4,13,4.2,4.1
"1625",17,27,"female",25,68,45,2789,"0",166,46,3.1,4.7
"1626",17,27,"female",26,73,41,2934,"1",272,35,3.8,3.6
"1627",17,27,"female",27,12,18,5300,"1",6,10,4.2,3.3
"1628",17,27,"female",28,62,1,6434,"1",111,1,4.5,5
"1629",17,27,"female",29,55,30,3732,"0",45,20,3.5,4
"1630",17,27,"female",30,41,68,5268,"1",35,166,3.6,3.1
"1631",17,27,"female",31,69,18,3997,"1",167,10,3.9,3.3
"1632",17,27,"female",32,26,5,3667,"0",17,2,3.1,5
"1633",17,27,"female",33,14,39,3078,"0",8,31,3.9,3.8
"1634",17,27,"female",34,35,79,3874,"1",24,416,4.3,3.6
"1635",17,27,"female",35,32,23,2080,"0",22,12,3.1,4.7
"1636",17,27,"female",36,1,66,8290,"1",1,134,5,3.3
"1637",17,27,"female",37,57,47,4253,"0",96,49,2.7,3.9
"1638",17,27,"female",38,53,70,2998,"1",84,172,4.5,4.1
"1639",17,27,"female",39,15,59,6467,"1",8,96,3.5,3.3
"1640",17,27,"female",40,73,47,5309,"0",272,49,3.8,3.9
"1641",17,27,"female",41,79,46,2990,"1",416,47,3.6,3.9
"1642",17,27,"female",42,7,76,6407,"0",3,348,4.7,4.2
"1643",17,27,"female",43,43,34,6419,"0",44,23,4.6,4.8
"1644",17,27,"female",44,27,11,4387,"0",18,6,2.8,3.7
"1645",17,27,"female",45,74,56,3511,"0",284,94,3.6,3.9
"1646",17,27,"female",46,21,79,2397,"1",11,416,4.6,3.6
"1647",17,27,"female",47,27,23,3360,"0",18,12,2.8,4.7
"1648",17,27,"female",48,22,41,3093,"1",12,35,3.8,3.6
"1649",17,27,"female",49,49,38,2868,"1",57,59,4.5,4
"1650",17,27,"female",50,9,47,5254,"1",4,49,5,3.9
"1651",17,27,"female",51,63,5,7208,"0",113,2,3.3,5
"1652",17,27,"female",52,17,33,5222,"1",9,22,4.9,3.9
"1653",17,27,"female",53,58,7,4084,"1",99,3,4.6,4.7
"1654",17,27,"female",54,23,50,3261,"1",12,74,4.7,3.3
"1655",17,27,"female",55,63,53,7759,"0",113,84,3.3,4.5
"1656",17,27,"female",56,21,3,3038,"1",11,2,4.6,2.5
"1657",17,27,"female",57,24,12,2819,"0",13,6,3.5,4.2
"1658",17,27,"female",58,67,68,2570,"1",148,166,4.8,3.1
"1659",17,27,"female",59,20,54,2064,"1",11,85,3.9,2.5
"1660",17,27,"female",60,81,48,3920,"1",22,53,4.6,4.2
"1661",17,27,"female",61,30,66,2213,"1",20,134,4,3.3
"1662",17,27,"female",62,31,22,3667,"0",21,12,1.9,3.8
"1663",17,27,"female",63,74,20,6549,"1",284,11,3.6,3.9
"1664",17,27,"female",64,71,48,6080,"1",200,53,4.1,4.2
"1665",17,27,"female",65,10,7,2525,"0",5,3,3,4.7
"1666",17,27,"female",66,3,31,3528,"1",2,21,2.5,1.9
"1667",17,27,"female",67,16,31,3712,"1",9,21,3.9,1.9
"1668",17,27,"female",68,21,78,3022,"0",11,396,4.6,4.7
"1669",17,27,"female",69,39,68,3183,"1",31,166,3.8,3.1
"1670",17,27,"female",70,16,12,2241,"0",9,6,3.9,4.2
"1671",17,27,"female",71,82,77,2324,"1",89,354,4.3,3.5
"1672",17,27,"female",72,37,50,4471,"1",27,74,3.7,3.3
"1673",17,27,"female",73,44,37,1982,"1",45,27,4,3.7
"1674",17,27,"female",74,52,34,2158,"0",77,23,4.3,4.8
"1675",17,27,"female",75,25,59,2593,"1",13,96,4.1,3.3
"1676",17,27,"female",76,21,7,11340,"1",11,3,4.6,4.7
"1677",17,27,"female",77,12,64,3311,"1",6,120,4.2,3.4
"1678",17,27,"female",78,37,66,4906,"1",27,134,3.7,3.3
"1679",17,27,"female",79,58,23,3174,"1",99,12,4.6,4.7
"1680",17,27,"female",80,80,42,6309,"0",988,39,4.3,4.6
"1681",17,27,"female",81,79,3,2783,"1",416,2,3.6,2.5
"1682",17,27,"female",82,50,11,1953,"1",74,6,3.3,3.7
"1683",17,27,"female",83,55,43,2489,"0",45,44,3.5,4.6
"1684",17,27,"female",84,27,12,2351,"0",18,6,2.8,4.2
"1685",17,27,"female",85,52,77,2759,"1",77,354,4.3,3.5
"1686",17,27,"female",86,71,8,2035,"1",200,4,4.1,4.2
"1687",17,27,"female",87,39,74,5086,"1",31,284,3.8,3.6
"1688",17,27,"female",88,36,40,2001,"1",24,33,4.6,4.5
"1689",17,27,"female",89,65,4,2786,"1",126,2,3.2,4
"1690",17,27,"female",90,18,28,6084,"0",10,18,3.3,3.2
"1691",17,27,"female",91,12,71,2064,"0",6,200,4.2,4.1
"1692",17,27,"female",92,1,76,2464,"0",1,348,5,4.2
"1693",17,27,"female",93,5,55,13361,"1",2,45,5,3.5
"1694",17,27,"female",94,37,25,2525,"0",27,13,3.7,4.1
"1695",17,27,"female",95,83,39,2456,"1",24,31,4,3.8
"1696",17,27,"female",96,50,45,2839,"0",74,46,3.3,4.7
"1697",17,27,"female",97,61,1,2115,"1",106,1,4.3,5
"1698",17,27,"female",98,61,62,2685,"0",106,111,4.3,4.5
"1699",17,27,"female",99,25,23,2104,"0",13,12,4.1,4.7
"1700",17,27,"female",100,31,16,2241,"0",21,9,1.9,3.9
"1701",17,27,"female",101,12,50,4420,"1",6,74,4.2,3.3
"1702",17,27,"female",102,36,70,8400,"1",24,172,4.6,4.1
"1703",17,27,"female",103,19,37,2048,"1",10,27,4.3,3.7
"1704",17,27,"female",104,52,42,3950,"1",77,39,4.3,4.6
"1705",17,27,"female",105,11,45,2377,"0",6,46,3.7,4.7
"1706",17,27,"female",106,6,66,1703,"0",3,134,4,3.3
"1707",17,27,"female",107,76,43,3262,"0",348,44,4.2,4.6
"1708",17,27,"female",108,68,74,3744,"0",166,284,3.1,3.6
"1709",17,27,"female",109,75,77,2147,"1",346,354,4.6,3.5
"1710",17,27,"female",110,20,1,1779,"1",11,1,3.9,5
"1711",17,27,"female",111,7,11,4568,"1",3,6,4.7,3.7
"1712",17,27,"female",112,37,1,4306,"1",27,1,3.7,5
"1713",17,27,"female",113,12,72,4102,"1",6,38,4.2,3.3
"1714",17,27,"female",114,24,10,2865,"1",13,5,3.5,3
"1715",17,27,"female",115,53,64,2003,"1",84,120,4.5,3.4
"1716",17,27,"female",116,7,21,3941,"0",3,11,4.7,4.6
"1717",17,27,"female",117,10,8,2320,"0",5,4,3,4.2
"1718",17,27,"female",118,3,1,2467,"0",2,1,2.5,5
"1719",17,27,"female",119,25,57,2228,"1",13,96,4.1,2.7
"1720",17,27,"female",120,78,17,8212,"1",396,9,4.7,4.9
"1721",17,27,"female",121,78,5,2575,"1",396,2,4.7,5
"1722",17,27,"female",122,83,46,2789,"1",24,47,4,3.9
"1723",17,27,"female",123,80,36,5767,"1",988,24,4.3,4.6
"1724",17,27,"female",124,4,57,3219,"1",2,96,4,2.7
"1725",17,27,"female",125,6,57,2221,"1",3,96,4,2.7
"1726",17,27,"female",126,6,18,4492,"1",3,10,4,3.3
"1727",17,27,"female",127,56,54,2278,"1",94,85,3.9,2.5
"1728",17,27,"female",128,11,72,3809,"1",6,38,3.7,3.3
"1729",17,27,"female",129,41,25,3553,"0",35,13,3.6,4.1
"1730",17,27,"female",130,63,17,2223,"0",113,9,3.3,4.9
"1731",17,27,"female",131,40,5,1727,"1",33,2,4.5,5
"1732",17,27,"female",132,16,22,3001,"0",9,12,3.9,3.8
"1733",17,27,"female",133,51,40,3590,"0",76,33,3.2,4.5
"1734",17,27,"female",134,26,38,2376,"0",17,59,3.1,4
"1735",17,27,"female",135,45,71,3414,"1",46,200,4.7,4.1
"1736",17,27,"female",136,12,47,3174,"0",6,49,4.2,3.9
"1737",17,27,"female",137,16,57,2357,"1",9,96,3.9,2.7
"1738",17,27,"female",138,22,9,3360,"0",12,4,3.8,5
"1739",17,27,"female",139,13,27,2949,"1",7,18,3.3,2.8
"1740",17,27,"female",140,83,57,2214,"1",24,96,4,2.7
"1741",17,27,"female",141,53,70,1652,"1",84,172,4.5,4.1
"1742",17,27,"female",142,80,68,2033,"1",988,166,4.3,3.1
"1743",17,27,"female",143,73,34,1785,"0",272,23,3.8,4.8
"1744",17,27,"female",144,75,1,2224,"1",346,1,4.6,5
"1745",17,27,"female",145,61,7,2177,"1",106,3,4.3,4.7
"1746",17,27,"female",146,61,64,2118,"1",106,120,4.3,3.4
"1747",17,27,"female",147,63,12,4433,"0",113,6,3.3,4.2
"1748",17,27,"female",148,33,12,4111,"1",22,6,3.9,4.2
"1749",17,27,"female",149,1,49,2221,"0",1,57,5,4.5
"1750",17,27,"female",150,80,5,3166,"1",988,2,4.3,5
"1751",17,27,"female",151,79,40,4413,"0",416,33,3.6,4.5
"1752",17,27,"female",152,68,70,1543,"0",166,172,3.1,4.1
"1753",17,27,"female",153,5,25,5774,"1",2,13,5,4.1
"1754",17,27,"female",154,69,58,1932,"0",167,99,3.9,4.6
"1755",17,27,"female",155,46,6,8994,"1",47,3,3.9,4
"1756",17,27,"female",156,61,71,2681,"1",106,200,4.3,4.1
"1757",17,27,"female",157,52,77,2019,"1",77,354,4.3,3.5
"1758",17,27,"female",158,30,34,3065,"0",20,23,4,4.8
"1759",17,27,"female",159,63,45,1875,"0",113,46,3.3,4.7
"1760",17,27,"female",160,66,41,3021,"0",134,35,3.3,3.6
"1761",17,27,"female",161,31,19,1551,"0",21,10,1.9,4.3
"1762",17,27,"female",162,48,73,2182,"1",53,272,4.2,3.8
"1763",17,27,"female",163,7,28,1294,"1",3,18,4.7,3.2
"1764",17,27,"female",164,71,81,1490,"0",200,22,4.1,4.6
"1765",17,27,"female",165,57,34,1407,"0",96,23,2.7,4.8
"1766",17,27,"female",166,74,35,1608,"0",284,24,3.6,4.3
"1767",17,27,"female",167,83,51,1821,"1",24,76,4,3.2
"1768",17,27,"female",168,76,49,1498,"0",348,57,4.2,4.5
"1769",17,27,"female",169,33,65,2326,"1",22,126,3.9,3.2
"1770",17,27,"female",170,6,37,1737,"0",3,27,4,3.7
"1771",17,27,"female",171,63,65,1669,"1",113,126,3.3,3.2
"1772",17,27,"female",172,76,82,2037,"0",348,89,4.2,4.3
"1773",17,27,"female",173,74,24,1535,"1",284,13,3.6,3.5
"1774",17,27,"female",174,2,31,2740,"1",2,21,3,1.9
"1775",17,27,"female",175,3,31,2029,"1",2,21,2.5,1.9
"1776",17,27,"female",176,21,28,1685,"1",11,18,4.6,3.2
"1777",17,27,"female",177,32,7,1431,"0",22,3,3.1,4.7
"1778",17,27,"female",178,11,5,2166,"0",6,2,3.7,5
"1779",17,27,"female",179,14,71,1417,"0",8,200,3.9,4.1
"1780",17,27,"female",180,55,68,1541,"1",45,166,3.5,3.1
"1781",17,27,"female",181,79,43,1354,"0",416,44,3.6,4.6
"1782",17,27,"female",182,77,21,1177,"0",354,11,3.5,4.6
"1783",17,27,"female",183,18,5,1396,"1",10,2,3.3,5
"1784",17,27,"female",184,9,42,4269,"0",4,39,5,4.6
"1785",17,27,"female",185,83,25,1913,"0",24,13,4,4.1
"1786",17,27,"female",186,48,71,2777,"0",53,200,4.2,4.1
"1787",17,27,"female",187,75,17,3991,"1",346,9,4.6,4.9
"1788",17,27,"female",188,61,79,1406,"1",106,416,4.3,3.6
"1789",17,27,"female",189,59,16,3319,"0",96,9,3.3,3.9
"1790",17,27,"female",190,69,79,1604,"1",167,416,3.9,3.6
"1791",17,27,"female",191,6,16,2134,"0",3,9,4,3.9
"1792",17,27,"female",192,55,43,1540,"0",45,44,3.5,4.6
"1793",17,27,"female",193,44,56,1352,"1",45,94,4,3.9
"1794",17,27,"female",194,63,48,1159,"0",113,53,3.3,4.2
"1795",17,27,"female",195,16,22,1520,"1",9,12,3.9,3.8
"1796",17,27,"female",196,18,4,2001,"0",10,2,3.3,4
"1797",17,27,"female",197,35,63,1107,"1",24,113,4.3,3.3
"1798",17,27,"female",198,57,83,1154,"0",96,24,2.7,4
"1799",17,27,"female",199,30,64,2232,"1",20,120,4,3.4
"1800",17,27,"female",200,9,83,1801,"1",4,24,5,4
"1801",18,24,"male",1,62,76,2922,"0",111,348,4.5,4.2
"1802",18,24,"male",2,38,5,2543,"1",59,2,4,5
"1803",18,24,"male",3,63,29,2851,"0",113,19,3.3,4.3
"1804",18,24,"male",4,44,63,2171,"1",45,113,4,3.3
"1805",18,24,"male",5,60,73,1928,"1",104,272,4.7,3.8
"1806",18,24,"male",6,4,72,2154,"0",2,38,4,3.3
"1807",18,24,"male",7,10,31,1920,"1",5,21,3,1.9
"1808",18,24,"male",8,38,45,4030,"0",59,46,4,4.7
"1809",18,24,"male",9,16,59,2475,"0",9,96,3.9,3.3
"1810",18,24,"male",10,56,64,1942,"1",94,120,3.9,3.4
"1811",18,24,"male",11,19,33,1784,"1",10,22,4.3,3.9
"1812",18,24,"male",12,53,21,1827,"1",84,11,4.5,4.6
"1813",18,24,"male",13,70,79,1173,"1",172,416,4.1,3.6
"1814",18,24,"male",14,63,58,1126,"0",113,99,3.3,4.6
"1815",18,24,"male",15,17,51,1476,"1",9,76,4.9,3.2
"1816",18,24,"male",16,32,16,1479,"0",22,9,3.1,3.9
"1817",18,24,"male",17,40,74,2861,"1",33,284,4.5,3.6
"1818",18,24,"male",18,35,60,1203,"0",24,104,4.3,4.7
"1819",18,24,"male",19,33,29,1691,"0",22,19,3.9,4.3
"1820",18,24,"male",20,2,54,1362,"0",2,85,3,2.5
"1821",18,24,"male",21,65,23,1264,"0",126,12,3.2,4.7
"1822",18,24,"male",22,54,15,2030,"0",85,8,2.5,3.5
"1823",18,24,"male",23,35,7,1130,"1",24,3,4.3,4.7
"1824",18,24,"male",24,4,16,865,"0",2,9,4,3.9
"1825",18,24,"male",25,3,31,2938,"1",2,21,2.5,1.9
"1826",18,24,"male",26,67,70,655,"1",148,172,4.8,4.1
"1827",18,24,"male",27,27,25,1055,"0",18,13,2.8,4.1
"1828",18,24,"male",28,35,59,1623,"1",24,96,4.3,3.3
"1829",18,24,"male",29,8,79,983,"0",4,416,4.2,3.6
"1830",18,24,"male",30,68,44,2629,"1",166,45,3.1,4
"1831",18,24,"male",31,41,57,1773,"0",35,96,3.6,2.7
"1832",18,24,"male",32,71,61,3203,"1",200,106,4.1,4.3
"1833",18,24,"male",33,3,31,1922,"0",2,21,2.5,1.9
"1834",18,24,"male",34,34,6,669,"1",23,3,4.8,4
"1835",18,24,"male",35,58,64,740,"1",99,120,4.6,3.4
"1836",18,24,"male",36,47,35,2049,"1",49,24,3.9,4.3
"1837",18,24,"male",37,50,57,1506,"1",74,96,3.3,2.7
"1838",18,24,"male",38,15,9,1470,"0",8,4,3.5,5
"1839",18,24,"male",39,10,27,1262,"0",5,18,3,2.8
"1840",18,24,"male",40,47,65,1750,"1",49,126,3.9,3.2
"1841",18,24,"male",41,66,52,1137,"0",134,77,3.3,4.3
"1842",18,24,"male",42,17,80,3884,"0",9,988,4.9,4.3
"1843",18,24,"male",43,22,65,1153,"0",12,126,3.8,3.2
"1844",18,24,"male",44,34,44,1023,"0",23,45,4.8,4
"1845",18,24,"male",45,27,54,1474,"0",18,85,2.8,2.5
"1846",18,24,"male",46,51,48,968,"0",76,53,3.2,4.2
"1847",18,24,"male",47,32,25,911,"0",22,13,3.1,4.1
"1848",18,24,"male",48,35,65,1583,"0",24,126,4.3,3.2
"1849",18,24,"male",49,50,19,1364,"0",74,10,3.3,4.3
"1850",18,24,"male",50,7,25,3307,"0",3,13,4.7,4.1
"1851",18,24,"male",51,32,54,1782,"0",22,85,3.1,2.5
"1852",18,24,"male",52,16,68,1880,"1",9,166,3.9,3.1
"1853",18,24,"male",53,60,62,1611,"1",104,111,4.7,4.5
"1854",18,24,"male",54,81,38,1751,"0",22,59,4.6,4
"1855",18,24,"male",55,59,9,2869,"0",96,4,3.3,5
"1856",18,24,"male",56,57,37,1762,"0",96,27,2.7,3.7
"1857",18,24,"male",57,61,71,2341,"1",106,200,4.3,4.1
"1858",18,24,"male",58,52,7,1747,"1",77,3,4.3,4.7
"1859",18,24,"male",59,52,5,921,"1",77,2,4.3,5
"1860",18,24,"male",60,54,29,1584,"0",85,19,2.5,4.3
"1861",18,24,"male",61,33,28,935,"1",22,18,3.9,3.2
"1862",18,24,"male",62,60,17,1115,"1",104,9,4.7,4.9
"1863",18,24,"male",63,65,25,1100,"0",126,13,3.2,4.1
"1864",18,24,"male",64,82,17,2571,"0",89,9,4.3,4.9
"1865",18,24,"male",65,42,17,1239,"0",39,9,4.6,4.9
"1866",18,24,"male",66,68,35,952,"0",166,24,3.1,4.3
"1867",18,24,"male",67,13,54,1719,"1",7,85,3.3,2.5
"1868",18,24,"male",68,39,21,966,"0",31,11,3.8,4.6
"1869",18,24,"male",69,2,27,1924,"0",2,18,3,2.8
"1870",18,24,"male",70,64,66,2700,"1",120,134,3.4,3.3
"1871",18,24,"male",71,71,12,1019,"1",200,6,4.1,4.2
"1872",18,24,"male",72,51,6,1283,"1",76,3,3.2,4
"1873",18,24,"male",73,70,35,1446,"1",172,24,4.1,4.3
"1874",18,24,"male",74,51,54,847,"1",76,85,3.2,2.5
"1875",18,24,"male",75,30,46,1825,"0",20,47,4,3.9
"1876",18,24,"male",76,11,31,1303,"1",6,21,3.7,1.9
"1877",18,24,"male",77,14,7,1028,"1",8,3,3.9,4.7
"1878",18,24,"male",78,43,69,1426,"1",44,167,4.6,3.9
"1879",18,24,"male",79,33,23,1374,"0",22,12,3.9,4.7
"1880",18,24,"male",80,69,9,1443,"0",167,4,3.9,5
"1881",18,24,"male",81,71,58,1418,"0",200,99,4.1,4.6
"1882",18,24,"male",82,65,44,1232,"0",126,45,3.2,4
"1883",18,24,"male",83,42,44,1063,"0",39,45,4.6,4
"1884",18,24,"male",84,63,29,1325,"0",113,19,3.3,4.3
"1885",18,24,"male",85,78,67,2388,"1",396,148,4.7,4.8
"1886",18,24,"male",86,37,33,1075,"0",27,22,3.7,3.9
"1887",18,24,"male",87,11,51,2111,"0",6,76,3.7,3.2
"1888",18,24,"male",88,22,25,885,"0",12,13,3.8,4.1
"1889",18,24,"male",89,4,65,1562,"0",2,126,4,3.2
"1890",18,24,"male",90,19,64,1339,"1",10,120,4.3,3.4
"1891",18,24,"male",91,17,23,2297,"0",9,12,4.9,4.7
"1892",18,24,"male",92,11,6,1285,"1",6,3,3.7,4
"1893",18,24,"male",93,20,32,1348,"1",11,22,3.9,3.1
"1894",18,24,"male",94,1,20,1679,"0",1,11,5,3.9
"1895",18,24,"male",95,25,62,973,"0",13,111,4.1,4.5
"1896",18,24,"male",96,18,52,896,"0",10,77,3.3,4.3
"1897",18,24,"male",97,5,79,1388,"0",2,416,5,3.6
"1898",18,24,"male",98,33,5,2222,"1",22,2,3.9,5
"1899",18,24,"male",99,10,7,1018,"0",5,3,3,4.7
"1900",18,24,"male",100,36,82,1293,"0",24,89,4.6,4.3
"1901",18,24,"male",101,49,73,950,"1",57,272,4.5,3.8
"1902",18,24,"male",102,33,17,901,"0",22,9,3.9,4.9
